participant,photo_set,group,trial,block,distance,accuracy,RT,groupname,meanrt,stdev
0001,2,1,3,1,2,0,1.85105649998877,Sequential,1.1677458474984939,0.6256667579008958
0001,2,1,4,1,2,1,1.90056129998993,Sequential,1.1677458474984939,0.6256667579008958
0001,2,1,6,1,2,1,1.33305589994416,Sequential,1.1677458474984939,0.6256667579008958
0001,2,1,7,1,3,1,1.03381130006164,Sequential,1.1677458474984939,0.6256667579008958
0001,2,1,8,1,1,1,1.00026779994369,Sequential,1.1677458474984939,0.6256667579008958
0001,2,1,9,1,2,0,1.30010849994142,Sequential,1.1677458474984939,0.6256667579008958
0001,2,1,10,1,1,1,1.067134300014,Sequential,1.1677458474984939,0.6256667579008958
0001,2,1,11,1,3,0,0.966879099956714,Sequential,1.1677458474984939,0.6256667579008958
0001,2,1,12,1,2,0,0.883882000111043,Sequential,1.1677458474984939,0.6256667579008958
0001,2,1,13,1,1,0,1.16655419999734,Sequential,1.1677458474984939,0.6256667579008958
0001,2,1,14,1,2,1,0.850221400032751,Sequential,1.1677458474984939,0.6256667579008958
0001,2,1,15,1,3,0,0.416603800025769,Sequential,1.1677458474984939,0.6256667579008958
0001,2,1,16,1,3,1,1.01693939999677,Sequential,1.1677458474984939,0.6256667579008958
0001,2,1,17,1,1,0,1.50042339996435,Sequential,1.1677458474984939,0.6256667579008958
0001,2,1,18,1,3,1,0.432996000046842,Sequential,1.1677458474984939,0.6256667579008958
0001,2,1,19,1,3,0,1.60006119997706,Sequential,1.1677458474984939,0.6256667579008958
0001,2,1,20,1,1,0,1.35042350005824,Sequential,1.1677458474984939,0.6256667579008958
0001,2,1,22,2,3,1,1.15045570000075,Sequential,1.1677458474984939,0.6256667579008958
0001,2,1,23,2,1,0,0.966738799936138,Sequential,1.1677458474984939,0.6256667579008958
0001,2,1,24,2,1,0,1.15025869989768,Sequential,1.1677458474984939,0.6256667579008958
0001,2,1,25,2,2,1,0.902968600043096,Sequential,1.1677458474984939,0.6256667579008958
0001,2,1,26,2,3,0,1.16713069996331,Sequential,1.1677458474984939,0.6256667579008958
0001,2,1,27,2,3,0,1.15004509990104,Sequential,1.1677458474984939,0.6256667579008958
0001,2,1,28,2,2,0,0.91682399995625,Sequential,1.1677458474984939,0.6256667579008958
0001,2,1,29,2,1,0,0.668022300000302,Sequential,1.1677458474984939,0.6256667579008958
0001,2,1,30,2,3,0,0.667238599970005,Sequential,1.1677458474984939,0.6256667579008958
0001,2,1,31,2,2,1,0.983636699966155,Sequential,1.1677458474984939,0.6256667579008958
0001,2,1,32,2,3,0,1.15040460007731,Sequential,1.1677458474984939,0.6256667579008958
0001,2,1,33,2,1,1,1.48347590002231,Sequential,1.1677458474984939,0.6256667579008958
0001,2,1,34,2,2,0,1.36669300007634,Sequential,1.1677458474984939,0.6256667579008958
0001,2,1,35,2,1,0,0.900689900037833,Sequential,1.1677458474984939,0.6256667579008958
0001,2,1,36,2,3,1,0.851069000083953,Sequential,1.1677458474984939,0.6256667579008958
0001,2,1,37,2,2,1,1.0336038999958,Sequential,1.1677458474984939,0.6256667579008958
0001,2,1,38,2,3,1,1.68376109993551,Sequential,1.1677458474984939,0.6256667579008958
0001,2,1,39,2,1,1,1.95034009998199,Sequential,1.1677458474984939,0.6256667579008958
0001,2,1,40,2,2,0,1.25049819995183,Sequential,1.1677458474984939,0.6256667579008958
0001,2,1,41,3,3,0,1.83377939998172,Sequential,1.1677458474984939,0.6256667579008958
0001,2,1,42,3,1,1,1.06690079998225,Sequential,1.1677458474984939,0.6256667579008958
0001,2,1,43,3,2,1,0.966795499902219,Sequential,1.1677458474984939,0.6256667579008958
0001,2,1,44,3,2,1,1.1340477000922,Sequential,1.1677458474984939,0.6256667579008958
0001,2,1,45,3,1,1,1.31670480000321,Sequential,1.1677458474984939,0.6256667579008958
0001,2,1,46,3,3,1,1.01705540006515,Sequential,1.1677458474984939,0.6256667579008958
0001,2,1,47,3,3,0,0.81707600003574,Sequential,1.1677458474984939,0.6256667579008958
0001,2,1,48,3,1,0,1.25194480002392,Sequential,1.1677458474984939,0.6256667579008958
0001,2,1,49,3,2,1,0.951161799952388,Sequential,1.1677458474984939,0.6256667579008958
0001,2,1,50,3,2,0,0.998304500011727,Sequential,1.1677458474984939,0.6256667579008958
0001,2,1,51,3,1,0,1.01699999999255,Sequential,1.1677458474984939,0.6256667579008958
0001,2,1,52,3,1,1,1.0668175999308,Sequential,1.1677458474984939,0.6256667579008958
0001,2,1,53,3,2,1,1.00249720003922,Sequential,1.1677458474984939,0.6256667579008958
0001,2,1,54,3,3,1,0.916865000035614,Sequential,1.1677458474984939,0.6256667579008958
0001,2,1,55,3,1,0,0.316571100032888,Sequential,1.1677458474984939,0.6256667579008958
0001,2,1,56,3,2,0,0.967689099954441,Sequential,1.1677458474984939,0.6256667579008958
0001,2,1,57,3,1,1,1.26678100007121,Sequential,1.1677458474984939,0.6256667579008958
0001,2,1,58,3,2,1,0.916945000062697,Sequential,1.1677458474984939,0.6256667579008958
0001,2,1,60,3,3,0,1.0837752999505,Sequential,1.1677458474984939,0.6256667579008958
0001,2,1,61,4,3,0,1.90032050001901,Sequential,1.1677458474984939,0.6256667579008958
0001,2,1,62,4,1,1,1.00015960005112,Sequential,1.1677458474984939,0.6256667579008958
0001,2,1,63,4,2,0,0.917009099968709,Sequential,1.1677458474984939,0.6256667579008958
0001,2,1,64,4,2,1,0.95024400006514,Sequential,1.1677458474984939,0.6256667579008958
0001,2,1,65,4,1,1,0.349929800024256,Sequential,1.1677458474984939,0.6256667579008958
0001,2,1,66,4,2,0,1.43327649997082,Sequential,1.1677458474984939,0.6256667579008958
0001,2,1,67,4,3,0,1.16685909999069,Sequential,1.1677458474984939,0.6256667579008958
0001,2,1,68,4,1,1,1.15032749995589,Sequential,1.1677458474984939,0.6256667579008958
0001,2,1,69,4,2,1,0.951858799904585,Sequential,1.1677458474984939,0.6256667579008958
0001,2,1,70,4,1,0,0.866703300038353,Sequential,1.1677458474984939,0.6256667579008958
0001,2,1,71,4,3,1,1.00032709992956,Sequential,1.1677458474984939,0.6256667579008958
0001,2,1,72,4,2,0,0.885017799912021,Sequential,1.1677458474984939,0.6256667579008958
0001,2,1,73,4,1,0,0.466717400006019,Sequential,1.1677458474984939,0.6256667579008958
0001,2,1,74,4,2,1,0.934101300081238,Sequential,1.1677458474984939,0.6256667579008958
0001,2,1,75,4,3,0,0.933707999996841,Sequential,1.1677458474984939,0.6256667579008958
0001,2,1,76,4,3,1,0.984585499973036,Sequential,1.1677458474984939,0.6256667579008958
0001,2,1,77,4,1,1,0.883122600032948,Sequential,1.1677458474984939,0.6256667579008958
0001,2,1,78,4,3,0,0.833768600015901,Sequential,1.1677458474984939,0.6256667579008958
0001,2,1,79,4,3,1,0.851909499964677,Sequential,1.1677458474984939,0.6256667579008958
0001,2,1,80,4,1,0,1.08339949999936,Sequential,1.1677458474984939,0.6256667579008958
0001,2,1,82,5,3,0,0.950212300056592,Sequential,1.1677458474984939,0.6256667579008958
0001,2,1,83,5,1,1,0.399741200031713,Sequential,1.1677458474984939,0.6256667579008958
0001,2,1,84,5,1,0,0.567091300035827,Sequential,1.1677458474984939,0.6256667579008958
0001,2,1,85,5,2,0,0.333272599964403,Sequential,1.1677458474984939,0.6256667579008958
0001,2,1,86,5,3,1,0.95024849998299,Sequential,1.1677458474984939,0.6256667579008958
0001,2,1,87,5,3,0,0.900163399986923,Sequential,1.1677458474984939,0.6256667579008958
0001,2,1,88,5,2,1,0.31658989994321,Sequential,1.1677458474984939,0.6256667579008958
0001,2,1,89,5,1,0,0.917249000049196,Sequential,1.1677458474984939,0.6256667579008958
0001,2,1,90,5,3,0,0.967178000020795,Sequential,1.1677458474984939,0.6256667579008958
0001,2,1,91,5,2,1,0.933738599997014,Sequential,1.1677458474984939,0.6256667579008958
0001,2,1,92,5,3,0,1.15073610004038,Sequential,1.1677458474984939,0.6256667579008958
0001,2,1,93,5,1,1,1.08351699996274,Sequential,1.1677458474984939,0.6256667579008958
0001,2,1,94,5,2,0,0.900162299978547,Sequential,1.1677458474984939,0.6256667579008958
0001,2,1,95,5,1,0,1.13337419996969,Sequential,1.1677458474984939,0.6256667579008958
0001,2,1,96,5,3,1,0.967191400006414,Sequential,1.1677458474984939,0.6256667579008958
0001,2,1,97,5,2,0,0.800227000028826,Sequential,1.1677458474984939,0.6256667579008958
0001,2,1,98,5,3,0,0.900364400004037,Sequential,1.1677458474984939,0.6256667579008958
0001,2,1,99,5,1,0,0.984001000062562,Sequential,1.1677458474984939,0.6256667579008958
0001,2,1,100,5,2,0,1.24983629991766,Sequential,1.1677458474984939,0.6256667579008958
0001,2,1,102,6,1,1,0.850285099935718,Sequential,1.1677458474984939,0.6256667579008958
0001,2,1,103,6,2,1,0.833668799954467,Sequential,1.1677458474984939,0.6256667579008958
0001,2,1,104,6,2,0,0.817425000015646,Sequential,1.1677458474984939,0.6256667579008958
0001,2,1,105,6,1,0,1.25032640004065,Sequential,1.1677458474984939,0.6256667579008958
0001,2,1,106,6,3,0,0.983666799962521,Sequential,1.1677458474984939,0.6256667579008958
0001,2,1,107,6,3,0,1.13447120005731,Sequential,1.1677458474984939,0.6256667579008958
0001,2,1,108,6,1,0,1.16653100005351,Sequential,1.1677458474984939,0.6256667579008958
0001,2,1,109,6,2,1,1.25036850001197,Sequential,1.1677458474984939,0.6256667579008958
0001,2,1,110,6,2,0,1.05008499999531,Sequential,1.1677458474984939,0.6256667579008958
0001,2,1,111,6,1,1,1.33339550008532,Sequential,1.1677458474984939,0.6256667579008958
0001,2,1,112,6,1,1,0.883413100033067,Sequential,1.1677458474984939,0.6256667579008958
0001,2,1,113,6,2,1,1.50030770001467,Sequential,1.1677458474984939,0.6256667579008958
0001,2,1,114,6,3,1,1.26688730006572,Sequential,1.1677458474984939,0.6256667579008958
0001,2,1,115,6,1,0,1.18368309992366,Sequential,1.1677458474984939,0.6256667579008958
0001,2,1,116,6,2,1,1.16687219997402,Sequential,1.1677458474984939,0.6256667579008958
0001,2,1,117,6,1,1,0.950117800035514,Sequential,1.1677458474984939,0.6256667579008958
0001,2,1,118,6,2,0,1.05019640002865,Sequential,1.1677458474984939,0.6256667579008958
0001,2,1,119,6,3,1,1.01690010004677,Sequential,1.1677458474984939,0.6256667579008958
0001,2,1,120,6,3,0,0.900385699933395,Sequential,1.1677458474984939,0.6256667579008958
0002,3,1,3,1,2,1,1.96774100000039,Sequential,1.6112770366676463,0.5882551847355117
0002,3,1,4,1,2,1,1.50035830005072,Sequential,1.6112770366676463,0.5882551847355117
0002,3,1,5,1,1,1,1.43438400002196,Sequential,1.6112770366676463,0.5882551847355117
0002,3,1,6,1,2,1,1.8666429000441,Sequential,1.6112770366676463,0.5882551847355117
0002,3,1,7,1,3,1,1.16728980001062,Sequential,1.6112770366676463,0.5882551847355117
0002,3,1,9,1,2,1,1.56691419996787,Sequential,1.6112770366676463,0.5882551847355117
0002,3,1,10,1,1,1,1.15000299992971,Sequential,1.6112770366676463,0.5882551847355117
0002,3,1,11,1,3,1,1.28357530001085,Sequential,1.6112770366676463,0.5882551847355117
0002,3,1,12,1,2,1,1.41764279990457,Sequential,1.6112770366676463,0.5882551847355117
0002,3,1,14,1,2,1,1.20169730007183,Sequential,1.6112770366676463,0.5882551847355117
0002,3,1,15,1,3,1,1.7843189999694,Sequential,1.6112770366676463,0.5882551847355117
0002,3,1,16,1,3,1,1.36677059996873,Sequential,1.6112770366676463,0.5882551847355117
0002,3,1,17,1,1,1,1.30182819999754,Sequential,1.6112770366676463,0.5882551847355117
0002,3,1,18,1,3,1,1.41715059999842,Sequential,1.6112770366676463,0.5882551847355117
0002,3,1,19,1,3,1,1.16892960004043,Sequential,1.6112770366676463,0.5882551847355117
0002,3,1,20,1,1,1,1.25015809992328,Sequential,1.6112770366676463,0.5882551847355117
0002,3,1,21,2,2,1,1.91713260009419,Sequential,1.6112770366676463,0.5882551847355117
0002,3,1,22,2,3,1,1.11650100001134,Sequential,1.6112770366676463,0.5882551847355117
0002,3,1,23,2,1,1,1.38351820001844,Sequential,1.6112770366676463,0.5882551847355117
0002,3,1,24,2,1,1,1.23337260005064,Sequential,1.6112770366676463,0.5882551847355117
0002,3,1,26,2,3,1,1.15067390003242,Sequential,1.6112770366676463,0.5882551847355117
0002,3,1,27,2,3,1,1.39999700000044,Sequential,1.6112770366676463,0.5882551847355117
0002,3,1,28,2,2,1,1.50003070000093,Sequential,1.6112770366676463,0.5882551847355117
0002,3,1,29,2,1,1,1.50037140003406,Sequential,1.6112770366676463,0.5882551847355117
0002,3,1,30,2,3,1,1.21661559992936,Sequential,1.6112770366676463,0.5882551847355117
0002,3,1,31,2,2,1,2.19996620004531,Sequential,1.6112770366676463,0.5882551847355117
0002,3,1,33,2,1,1,1.30037339997943,Sequential,1.6112770366676463,0.5882551847355117
0002,3,1,34,2,2,1,1.81673720001709,Sequential,1.6112770366676463,0.5882551847355117
0002,3,1,35,2,1,1,1.43431519996375,Sequential,1.6112770366676463,0.5882551847355117
0002,3,1,36,2,3,1,2.46717489999719,Sequential,1.6112770366676463,0.5882551847355117
0002,3,1,37,2,2,1,1.30014720000327,Sequential,1.6112770366676463,0.5882551847355117
0002,3,1,38,2,3,1,1.20006599999033,Sequential,1.6112770366676463,0.5882551847355117
0002,3,1,39,2,1,1,1.85018479998689,Sequential,1.6112770366676463,0.5882551847355117
0002,3,1,40,2,2,1,1.51678489998449,Sequential,1.6112770366676463,0.5882551847355117
0002,3,1,41,3,3,1,2.3332271000836,Sequential,1.6112770366676463,0.5882551847355117
0002,3,1,42,3,1,1,1.26677990006283,Sequential,1.6112770366676463,0.5882551847355117
0002,3,1,43,3,2,1,1.7164890000131,Sequential,1.6112770366676463,0.5882551847355117
0002,3,1,44,3,2,1,1.38353809993714,Sequential,1.6112770366676463,0.5882551847355117
0002,3,1,45,3,1,1,1.76715390000027,Sequential,1.6112770366676463,0.5882551847355117
0002,3,1,46,3,3,1,1.66695179999806,Sequential,1.6112770366676463,0.5882551847355117
0002,3,1,47,3,3,1,1.13408360001631,Sequential,1.6112770366676463,0.5882551847355117
0002,3,1,48,3,1,1,1.26699809997808,Sequential,1.6112770366676463,0.5882551847355117
0002,3,1,49,3,2,1,1.30026990000624,Sequential,1.6112770366676463,0.5882551847355117
0002,3,1,50,3,2,1,2.70020409999415,Sequential,1.6112770366676463,0.5882551847355117
0002,3,1,51,3,1,1,1.41841550008394,Sequential,1.6112770366676463,0.5882551847355117
0002,3,1,52,3,1,1,2.35018019995186,Sequential,1.6112770366676463,0.5882551847355117
0002,3,1,53,3,2,1,1.3834877999033801,Sequential,1.6112770366676463,0.5882551847355117
0002,3,1,54,3,3,1,1.15185940009542,Sequential,1.6112770366676463,0.5882551847355117
0002,3,1,55,3,1,1,1.28422839997802,Sequential,1.6112770366676463,0.5882551847355117
0002,3,1,56,3,2,1,1.6169522999553,Sequential,1.6112770366676463,0.5882551847355117
0002,3,1,57,3,1,1,1.33343499992043,Sequential,1.6112770366676463,0.5882551847355117
0002,3,1,58,3,2,1,2.25028489995748,Sequential,1.6112770366676463,0.5882551847355117
0002,3,1,59,3,3,1,1.2517974000657,Sequential,1.6112770366676463,0.5882551847355117
0002,3,1,60,3,3,1,1.40006889996585,Sequential,1.6112770366676463,0.5882551847355117
0002,3,1,61,4,3,1,2.65093639993574,Sequential,1.6112770366676463,0.5882551847355117
0002,3,1,62,4,1,1,1.95029629999772,Sequential,1.6112770366676463,0.5882551847355117
0002,3,1,63,4,2,1,1.86725730006583,Sequential,1.6112770366676463,0.5882551847355117
0002,3,1,64,4,2,1,1.89996559999418,Sequential,1.6112770366676463,0.5882551847355117
0002,3,1,65,4,1,1,1.38363509997725,Sequential,1.6112770366676463,0.5882551847355117
0002,3,1,66,4,2,1,1.7173349999357,Sequential,1.6112770366676463,0.5882551847355117
0002,3,1,67,4,3,1,1.21648469998036,Sequential,1.6112770366676463,0.5882551847355117
0002,3,1,68,4,1,1,1.73598429991398,Sequential,1.6112770366676463,0.5882551847355117
0002,3,1,69,4,2,1,1.3842434999533,Sequential,1.6112770366676463,0.5882551847355117
0002,3,1,70,4,1,1,1.15001830004621,Sequential,1.6112770366676463,0.5882551847355117
0002,3,1,71,4,3,1,2.34979479992762,Sequential,1.6112770366676463,0.5882551847355117
0002,3,1,72,4,2,1,1.26786899997387,Sequential,1.6112770366676463,0.5882551847355117
0002,3,1,73,4,1,1,1.46684649994131,Sequential,1.6112770366676463,0.5882551847355117
0002,3,1,74,4,2,1,1.4997695999918501,Sequential,1.6112770366676463,0.5882551847355117
0002,3,1,75,4,3,1,1.13385380001273,Sequential,1.6112770366676463,0.5882551847355117
0002,3,1,76,4,3,1,1.29977409995627,Sequential,1.6112770366676463,0.5882551847355117
0002,3,1,77,4,1,1,1.21672929998022,Sequential,1.6112770366676463,0.5882551847355117
0002,3,1,78,4,3,1,1.36707120004576,Sequential,1.6112770366676463,0.5882551847355117
0002,3,1,79,4,3,1,1.20069229998626,Sequential,1.6112770366676463,0.5882551847355117
0002,3,1,80,4,1,1,1.19995639997069,Sequential,1.6112770366676463,0.5882551847355117
0002,3,1,81,5,2,1,1.95053710008506,Sequential,1.6112770366676463,0.5882551847355117
0002,3,1,82,5,3,1,1.09979890007526,Sequential,1.6112770366676463,0.5882551847355117
0002,3,1,83,5,1,1,1.95051280001644,Sequential,1.6112770366676463,0.5882551847355117
0002,3,1,84,5,1,1,1.05053410003893,Sequential,1.6112770366676463,0.5882551847355117
0002,3,1,85,5,2,1,1.43349359999411,Sequential,1.6112770366676463,0.5882551847355117
0002,3,1,86,5,3,1,1.11671289999504,Sequential,1.6112770366676463,0.5882551847355117
0002,3,1,87,5,3,1,1.18494890001602,Sequential,1.6112770366676463,0.5882551847355117
0002,3,1,88,5,2,1,1.49984579999,Sequential,1.6112770366676463,0.5882551847355117
0002,3,1,89,5,1,1,1.48339049995411,Sequential,1.6112770366676463,0.5882551847355117
0002,3,1,90,5,3,1,1.16703949996736,Sequential,1.6112770366676463,0.5882551847355117
0002,3,1,91,5,2,1,1.41706590005197,Sequential,1.6112770366676463,0.5882551847355117
0002,3,1,92,5,3,1,1.26900650002062,Sequential,1.6112770366676463,0.5882551847355117
0002,3,1,93,5,1,1,1.18340450001415,Sequential,1.6112770366676463,0.5882551847355117
0002,3,1,94,5,2,1,1.21781040006317,Sequential,1.6112770366676463,0.5882551847355117
0002,3,1,95,5,1,1,1.33313100005034,Sequential,1.6112770366676463,0.5882551847355117
0002,3,1,97,5,2,1,1.21825699997135,Sequential,1.6112770366676463,0.5882551847355117
0002,3,1,98,5,3,1,1.15023359993938,Sequential,1.6112770366676463,0.5882551847355117
0002,3,1,99,5,1,1,1.63406359998044,Sequential,1.6112770366676463,0.5882551847355117
0002,3,1,100,5,2,1,1.38354840001557,Sequential,1.6112770366676463,0.5882551847355117
0002,3,1,101,6,3,1,1.18403869995382,Sequential,1.6112770366676463,0.5882551847355117
0002,3,1,102,6,1,1,1.21680429996923,Sequential,1.6112770366676463,0.5882551847355117
0002,3,1,103,6,2,1,1.35024400008842,Sequential,1.6112770366676463,0.5882551847355117
0002,3,1,105,6,1,1,1.40022069995757,Sequential,1.6112770366676463,0.5882551847355117
0002,3,1,106,6,3,1,1.58418240002356,Sequential,1.6112770366676463,0.5882551847355117
0002,3,1,107,6,3,1,1.93329000007361,Sequential,1.6112770366676463,0.5882551847355117
0002,3,1,108,6,1,1,1.3666861000238,Sequential,1.6112770366676463,0.5882551847355117
0002,3,1,109,6,2,1,1.71692929998972,Sequential,1.6112770366676463,0.5882551847355117
0002,3,1,110,6,2,1,1.44962269999087,Sequential,1.6112770366676463,0.5882551847355117
0002,3,1,111,6,1,1,1.7004163999809,Sequential,1.6112770366676463,0.5882551847355117
0002,3,1,112,6,1,1,1.1502143999096,Sequential,1.6112770366676463,0.5882551847355117
0002,3,1,113,6,2,1,2.08373069996014,Sequential,1.6112770366676463,0.5882551847355117
0002,3,1,114,6,3,1,1.10213930008467,Sequential,1.6112770366676463,0.5882551847355117
0002,3,1,115,6,1,1,1.40009460004512,Sequential,1.6112770366676463,0.5882551847355117
0002,3,1,116,6,2,1,1.33392450003885,Sequential,1.6112770366676463,0.5882551847355117
0002,3,1,117,6,1,1,1.61681749997661,Sequential,1.6112770366676463,0.5882551847355117
0002,3,1,118,6,2,1,1.28366820001975,Sequential,1.6112770366676463,0.5882551847355117
0002,3,1,119,6,3,1,1.1170015000971,Sequential,1.6112770366676463,0.5882551847355117
0002,3,1,120,6,3,1,1.35054030001629,Sequential,1.6112770366676463,0.5882551847355117
0003,5,1,1,1,3,1,2.41679070005193,Sequential,1.5202812916638018,0.7165406772439475
0003,5,1,3,1,2,1,2.50062149995938,Sequential,1.5202812916638018,0.7165406772439475
0003,5,1,4,1,2,1,1.48329150001518,Sequential,1.5202812916638018,0.7165406772439475
0003,5,1,6,1,2,1,1.40004940005019,Sequential,1.5202812916638018,0.7165406772439475
0003,5,1,7,1,3,1,1.33397209993564,Sequential,1.5202812916638018,0.7165406772439475
0003,5,1,9,1,2,1,1.51727409998421,Sequential,1.5202812916638018,0.7165406772439475
0003,5,1,10,1,1,1,1.90003240003716,Sequential,1.5202812916638018,0.7165406772439475
0003,5,1,11,1,3,1,1.41662190004718,Sequential,1.5202812916638018,0.7165406772439475
0003,5,1,12,1,2,1,1.36795149999671,Sequential,1.5202812916638018,0.7165406772439475
0003,5,1,14,1,2,1,1.2833691999549,Sequential,1.5202812916638018,0.7165406772439475
0003,5,1,15,1,3,1,1.26701309997588,Sequential,1.5202812916638018,0.7165406772439475
0003,5,1,16,1,3,1,1.26693539996631,Sequential,1.5202812916638018,0.7165406772439475
0003,5,1,17,1,1,1,1.80006309994496,Sequential,1.5202812916638018,0.7165406772439475
0003,5,1,18,1,3,1,1.20044309995137,Sequential,1.5202812916638018,0.7165406772439475
0003,5,1,19,1,3,1,1.1499984000111,Sequential,1.5202812916638018,0.7165406772439475
0003,5,1,20,1,1,1,2.23350870003924,Sequential,1.5202812916638018,0.7165406772439475
0003,5,1,21,2,2,1,1.21693240001332,Sequential,1.5202812916638018,0.7165406772439475
0003,5,1,22,2,3,1,1.18523419997655,Sequential,1.5202812916638018,0.7165406772439475
0003,5,1,23,2,1,1,1.96666419995017,Sequential,1.5202812916638018,0.7165406772439475
0003,5,1,24,2,1,1,1.21706269995775,Sequential,1.5202812916638018,0.7165406772439475
0003,5,1,25,2,2,1,1.46727689995896,Sequential,1.5202812916638018,0.7165406772439475
0003,5,1,26,2,3,1,1.38384149991907,Sequential,1.5202812916638018,0.7165406772439475
0003,5,1,27,2,3,1,1.31720629998017,Sequential,1.5202812916638018,0.7165406772439475
0003,5,1,28,2,2,1,1.66717779997271,Sequential,1.5202812916638018,0.7165406772439475
0003,5,1,29,2,1,1,2.23430060001556,Sequential,1.5202812916638018,0.7165406772439475
0003,5,1,30,2,3,1,1.31900999997742,Sequential,1.5202812916638018,0.7165406772439475
0003,5,1,31,2,2,1,1.28327910008375,Sequential,1.5202812916638018,0.7165406772439475
0003,5,1,32,2,3,1,1.26852469996084,Sequential,1.5202812916638018,0.7165406772439475
0003,5,1,33,2,1,1,1.33334190002643,Sequential,1.5202812916638018,0.7165406772439475
0003,5,1,34,2,2,1,1.36733749997802,Sequential,1.5202812916638018,0.7165406772439475
0003,5,1,36,2,3,1,1.63351239997428,Sequential,1.5202812916638018,0.7165406772439475
0003,5,1,37,2,2,1,1.33343529992271,Sequential,1.5202812916638018,0.7165406772439475
0003,5,1,38,2,3,1,1.40043149993289,Sequential,1.5202812916638018,0.7165406772439475
0003,5,1,39,2,1,1,2.18411659996491,Sequential,1.5202812916638018,0.7165406772439475
0003,5,1,40,2,2,1,1.20046570000704,Sequential,1.5202812916638018,0.7165406772439475
0003,5,1,41,3,3,1,1.36638319992926,Sequential,1.5202812916638018,0.7165406772439475
0003,5,1,42,3,1,1,1.43361340009142,Sequential,1.5202812916638018,0.7165406772439475
0003,5,1,43,3,2,1,1.23400699999183,Sequential,1.5202812916638018,0.7165406772439475
0003,5,1,44,3,2,1,1.30029649997596,Sequential,1.5202812916638018,0.7165406772439475
0003,5,1,46,3,3,1,1.25033200008329,Sequential,1.5202812916638018,0.7165406772439475
0003,5,1,47,3,3,1,1.16677590005565,Sequential,1.5202812916638018,0.7165406772439475
0003,5,1,48,3,1,1,1.25028829998337,Sequential,1.5202812916638018,0.7165406772439475
0003,5,1,49,3,2,1,1.33352139999624,Sequential,1.5202812916638018,0.7165406772439475
0003,5,1,50,3,2,1,1.23403259995393,Sequential,1.5202812916638018,0.7165406772439475
0003,5,1,51,3,1,1,1.29998480004724,Sequential,1.5202812916638018,0.7165406772439475
0003,5,1,52,3,1,1,1.18484609993175,Sequential,1.5202812916638018,0.7165406772439475
0003,5,1,53,3,2,1,1.16675029997714,Sequential,1.5202812916638018,0.7165406772439475
0003,5,1,54,3,3,1,1.15036239998881,Sequential,1.5202812916638018,0.7165406772439475
0003,5,1,55,3,1,1,1.75045479997061,Sequential,1.5202812916638018,0.7165406772439475
0003,5,1,56,3,2,1,1.26695449999534,Sequential,1.5202812916638018,0.7165406772439475
0003,5,1,57,3,1,1,2.61708820005879,Sequential,1.5202812916638018,0.7165406772439475
0003,5,1,58,3,2,1,1.2666748999618,Sequential,1.5202812916638018,0.7165406772439475
0003,5,1,59,3,3,1,1.25028680008836,Sequential,1.5202812916638018,0.7165406772439475
0003,5,1,60,3,3,1,1.25020740006585,Sequential,1.5202812916638018,0.7165406772439475
0003,5,1,61,4,3,1,1.21720579999965,Sequential,1.5202812916638018,0.7165406772439475
0003,5,1,62,4,1,1,1.73400309996214,Sequential,1.5202812916638018,0.7165406772439475
0003,5,1,63,4,2,1,1.54999500000849,Sequential,1.5202812916638018,0.7165406772439475
0003,5,1,64,4,2,1,1.11709780001547,Sequential,1.5202812916638018,0.7165406772439475
0003,5,1,65,4,1,1,1.98494160000701,Sequential,1.5202812916638018,0.7165406772439475
0003,5,1,66,4,2,1,1.39950390008744,Sequential,1.5202812916638018,0.7165406772439475
0003,5,1,67,4,3,1,1.16702330007683,Sequential,1.5202812916638018,0.7165406772439475
0003,5,1,68,4,1,1,1.76693729998078,Sequential,1.5202812916638018,0.7165406772439475
0003,5,1,69,4,2,1,1.46653999993578,Sequential,1.5202812916638018,0.7165406772439475
0003,5,1,70,4,1,1,1.33391609997489,Sequential,1.5202812916638018,0.7165406772439475
0003,5,1,71,4,3,1,1.13556720002089,Sequential,1.5202812916638018,0.7165406772439475
0003,5,1,72,4,2,1,1.10113269998692,Sequential,1.5202812916638018,0.7165406772439475
0003,5,1,73,4,1,1,1.40134500002023,Sequential,1.5202812916638018,0.7165406772439475
0003,5,1,74,4,2,1,1.26633140002377,Sequential,1.5202812916638018,0.7165406772439475
0003,5,1,75,4,3,1,1.21779509994667,Sequential,1.5202812916638018,0.7165406772439475
0003,5,1,76,4,3,1,1.28373970009852,Sequential,1.5202812916638018,0.7165406772439475
0003,5,1,77,4,1,1,1.36679910006933,Sequential,1.5202812916638018,0.7165406772439475
0003,5,1,78,4,3,1,1.18355660000816,Sequential,1.5202812916638018,0.7165406772439475
0003,5,1,79,4,3,1,1.20034890004899,Sequential,1.5202812916638018,0.7165406772439475
0003,5,1,80,4,1,1,1.45059120003134,Sequential,1.5202812916638018,0.7165406772439475
0003,5,1,81,5,2,1,1.31727619993035,Sequential,1.5202812916638018,0.7165406772439475
0003,5,1,82,5,3,1,1.20047799998429,Sequential,1.5202812916638018,0.7165406772439475
0003,5,1,83,5,1,1,1.76710830000229,Sequential,1.5202812916638018,0.7165406772439475
0003,5,1,84,5,1,1,1.26718520000577,Sequential,1.5202812916638018,0.7165406772439475
0003,5,1,85,5,2,1,1.18369839992374,Sequential,1.5202812916638018,0.7165406772439475
0003,5,1,86,5,3,1,1.21655879996251,Sequential,1.5202812916638018,0.7165406772439475
0003,5,1,87,5,3,1,1.13391330000013,Sequential,1.5202812916638018,0.7165406772439475
0003,5,1,88,5,2,1,1.16670339996926,Sequential,1.5202812916638018,0.7165406772439475
0003,5,1,89,5,1,1,1.36748369992711,Sequential,1.5202812916638018,0.7165406772439475
0003,5,1,90,5,3,1,1.21785840007942,Sequential,1.5202812916638018,0.7165406772439475
0003,5,1,91,5,2,1,1.23343639995437,Sequential,1.5202812916638018,0.7165406772439475
0003,5,1,92,5,3,1,1.18394909997005,Sequential,1.5202812916638018,0.7165406772439475
0003,5,1,93,5,1,1,1.3517396999523,Sequential,1.5202812916638018,0.7165406772439475
0003,5,1,94,5,2,1,1.33353070006706,Sequential,1.5202812916638018,0.7165406772439475
0003,5,1,95,5,1,1,1.25036019994877,Sequential,1.5202812916638018,0.7165406772439475
0003,5,1,96,5,3,1,1.26661579997744,Sequential,1.5202812916638018,0.7165406772439475
0003,5,1,97,5,2,1,1.1835970999673,Sequential,1.5202812916638018,0.7165406772439475
0003,5,1,98,5,3,1,1.11716010002419,Sequential,1.5202812916638018,0.7165406772439475
0003,5,1,99,5,1,1,1.26684379996732,Sequential,1.5202812916638018,0.7165406772439475
0003,5,1,100,5,2,1,1.10043079999741,Sequential,1.5202812916638018,0.7165406772439475
0003,5,1,101,6,3,1,1.1671980000101,Sequential,1.5202812916638018,0.7165406772439475
0003,5,1,102,6,1,1,1.25030940002762,Sequential,1.5202812916638018,0.7165406772439475
0003,5,1,103,6,2,1,1.11713189992588,Sequential,1.5202812916638018,0.7165406772439475
0003,5,1,104,6,2,1,1.26676799997222,Sequential,1.5202812916638018,0.7165406772439475
0003,5,1,105,6,1,1,1.64996079995763,Sequential,1.5202812916638018,0.7165406772439475
0003,5,1,106,6,3,1,1.16677590005565,Sequential,1.5202812916638018,0.7165406772439475
0003,5,1,107,6,3,1,1.15041930007283,Sequential,1.5202812916638018,0.7165406772439475
0003,5,1,108,6,1,1,1.21667429991066,Sequential,1.5202812916638018,0.7165406772439475
0003,5,1,109,6,2,1,1.38359250000212,Sequential,1.5202812916638018,0.7165406772439475
0003,5,1,110,6,2,1,1.25035560003016,Sequential,1.5202812916638018,0.7165406772439475
0003,5,1,111,6,1,1,1.18385419994593,Sequential,1.5202812916638018,0.7165406772439475
0003,5,1,112,6,1,1,1.28369160008151,Sequential,1.5202812916638018,0.7165406772439475
0003,5,1,113,6,2,1,1.21685500000603,Sequential,1.5202812916638018,0.7165406772439475
0003,5,1,114,6,3,1,1.21647750004195,Sequential,1.5202812916638018,0.7165406772439475
0003,5,1,115,6,1,1,1.23335100000259,Sequential,1.5202812916638018,0.7165406772439475
0003,5,1,116,6,2,1,1.25063030002639,Sequential,1.5202812916638018,0.7165406772439475
0003,5,1,117,6,1,1,1.41728419996798,Sequential,1.5202812916638018,0.7165406772439475
0003,5,1,118,6,2,1,1.18341739999596,Sequential,1.5202812916638018,0.7165406772439475
0003,5,1,119,6,3,1,1.23332819994539,Sequential,1.5202812916638018,0.7165406772439475
0003,5,1,120,6,3,1,1.18363300000783,Sequential,1.5202812916638018,0.7165406772439475
0004,3,2,4,1,2,1,1.4161646,Non-sequential,1.5093349258333373,0.47366447897492303
0004,3,2,5,1,1,1,1.23363889999996,Non-sequential,1.5093349258333373,0.47366447897492303
0004,3,2,6,1,2,1,1.8837625000001,Non-sequential,1.5093349258333373,0.47366447897492303
0004,3,2,7,1,3,1,1.53344590000006,Non-sequential,1.5093349258333373,0.47366447897492303
0004,3,2,9,1,2,1,1.56718569999998,Non-sequential,1.5093349258333373,0.47366447897492303
0004,3,2,10,1,1,1,1.51779149999993,Non-sequential,1.5093349258333373,0.47366447897492303
0004,3,2,11,1,3,1,1.93330190000006,Non-sequential,1.5093349258333373,0.47366447897492303
0004,3,2,12,1,2,1,1.51684230000001,Non-sequential,1.5093349258333373,0.47366447897492303
0004,3,2,13,1,1,1,1.46719250000001,Non-sequential,1.5093349258333373,0.47366447897492303
0004,3,2,14,1,2,1,1.31885750000015,Non-sequential,1.5093349258333373,0.47366447897492303
0004,3,2,15,1,3,1,1.41675310000005,Non-sequential,1.5093349258333373,0.47366447897492303
0004,3,2,16,1,3,1,1.3338298000001,Non-sequential,1.5093349258333373,0.47366447897492303
0004,3,2,17,1,1,1,1.55028849999985,Non-sequential,1.5093349258333373,0.47366447897492303
0004,3,2,18,1,3,1,1.45071359999997,Non-sequential,1.5093349258333373,0.47366447897492303
0004,3,2,19,1,3,1,1.56910830000015,Non-sequential,1.5093349258333373,0.47366447897492303
0004,3,2,20,1,1,1,1.38359980000018,Non-sequential,1.5093349258333373,0.47366447897492303
0004,3,2,21,2,2,1,1.73348040000019,Non-sequential,1.5093349258333373,0.47366447897492303
0004,3,2,22,2,3,1,1.36666930000001,Non-sequential,1.5093349258333373,0.47366447897492303
0004,3,2,23,2,1,1,1.466858,Non-sequential,1.5093349258333373,0.47366447897492303
0004,3,2,24,2,1,1,1.48309620000009,Non-sequential,1.5093349258333373,0.47366447897492303
0004,3,2,25,2,2,1,1.28455729999996,Non-sequential,1.5093349258333373,0.47366447897492303
0004,3,2,26,2,3,1,1.28313520000006,Non-sequential,1.5093349258333373,0.47366447897492303
0004,3,2,27,2,3,1,1.3687175,Non-sequential,1.5093349258333373,0.47366447897492303
0004,3,2,28,2,2,1,1.40155300000015,Non-sequential,1.5093349258333373,0.47366447897492303
0004,3,2,29,2,1,1,1.75000329999989,Non-sequential,1.5093349258333373,0.47366447897492303
0004,3,2,30,2,3,1,1.28519189999997,Non-sequential,1.5093349258333373,0.47366447897492303
0004,3,2,31,2,2,1,1.41703899999993,Non-sequential,1.5093349258333373,0.47366447897492303
0004,3,2,32,2,3,1,1.25015609999991,Non-sequential,1.5093349258333373,0.47366447897492303
0004,3,2,33,2,1,1,1.50007530000016,Non-sequential,1.5093349258333373,0.47366447897492303
0004,3,2,34,2,2,1,1.4503666999999,Non-sequential,1.5093349258333373,0.47366447897492303
0004,3,2,36,2,3,1,1.30012109999984,Non-sequential,1.5093349258333373,0.47366447897492303
0004,3,2,37,2,2,1,1.21699269999999,Non-sequential,1.5093349258333373,0.47366447897492303
0004,3,2,38,2,3,1,1.41697580000005,Non-sequential,1.5093349258333373,0.47366447897492303
0004,3,2,39,2,1,1,1.49972350000007,Non-sequential,1.5093349258333373,0.47366447897492303
0004,3,2,40,2,2,1,1.88345890000005,Non-sequential,1.5093349258333373,0.47366447897492303
0004,3,2,41,3,3,1,1.28401110000004,Non-sequential,1.5093349258333373,0.47366447897492303
0004,3,2,42,3,1,1,1.40006859999994,Non-sequential,1.5093349258333373,0.47366447897492303
0004,3,2,43,3,2,1,1.6500982,Non-sequential,1.5093349258333373,0.47366447897492303
0004,3,2,44,3,2,1,1.68543399999999,Non-sequential,1.5093349258333373,0.47366447897492303
0004,3,2,46,3,3,1,1.31651339999985,Non-sequential,1.5093349258333373,0.47366447897492303
0004,3,2,47,3,3,1,1.26741500000003,Non-sequential,1.5093349258333373,0.47366447897492303
0004,3,2,48,3,1,1,1.35026749999997,Non-sequential,1.5093349258333373,0.47366447897492303
0004,3,2,49,3,2,1,1.76648610000007,Non-sequential,1.5093349258333373,0.47366447897492303
0004,3,2,50,3,2,1,1.46669560000009,Non-sequential,1.5093349258333373,0.47366447897492303
0004,3,2,51,3,1,1,1.39955959999998,Non-sequential,1.5093349258333373,0.47366447897492303
0004,3,2,52,3,1,1,1.46783459999983,Non-sequential,1.5093349258333373,0.47366447897492303
0004,3,2,53,3,2,1,1.31664839999985,Non-sequential,1.5093349258333373,0.47366447897492303
0004,3,2,54,3,3,1,1.2531785000001,Non-sequential,1.5093349258333373,0.47366447897492303
0004,3,2,55,3,1,1,1.36700870000004,Non-sequential,1.5093349258333373,0.47366447897492303
0004,3,2,56,3,2,1,1.86637709999991,Non-sequential,1.5093349258333373,0.47366447897492303
0004,3,2,57,3,1,1,1.38389689999985,Non-sequential,1.5093349258333373,0.47366447897492303
0004,3,2,58,3,2,1,1.84997680000015,Non-sequential,1.5093349258333373,0.47366447897492303
0004,3,2,59,3,3,1,1.23352330000012,Non-sequential,1.5093349258333373,0.47366447897492303
0004,3,2,60,3,3,1,1.2501863,Non-sequential,1.5093349258333373,0.47366447897492303
0004,3,2,61,4,3,1,1.23378200000002,Non-sequential,1.5093349258333373,0.47366447897492303
0004,3,2,62,4,1,1,1.31663750000007,Non-sequential,1.5093349258333373,0.47366447897492303
0004,3,2,63,4,2,1,1.45017919999987,Non-sequential,1.5093349258333373,0.47366447897492303
0004,3,2,64,4,2,1,1.20012729999985,Non-sequential,1.5093349258333373,0.47366447897492303
0004,3,2,65,4,1,1,1.25009350000005,Non-sequential,1.5093349258333373,0.47366447897492303
0004,3,2,66,4,2,1,1.33376109999995,Non-sequential,1.5093349258333373,0.47366447897492303
0004,3,2,67,4,3,1,1.30037119999997,Non-sequential,1.5093349258333373,0.47366447897492303
0004,3,2,68,4,1,1,1.40013180000005,Non-sequential,1.5093349258333373,0.47366447897492303
0004,3,2,69,4,2,1,1.36810770000011,Non-sequential,1.5093349258333373,0.47366447897492303
0004,3,2,70,4,1,1,1.25063390000014,Non-sequential,1.5093349258333373,0.47366447897492303
0004,3,2,71,4,3,1,1.2000951,Non-sequential,1.5093349258333373,0.47366447897492303
0004,3,2,72,4,2,1,1.26858240000001,Non-sequential,1.5093349258333373,0.47366447897492303
0004,3,2,73,4,1,1,1.95003939999992,Non-sequential,1.5093349258333373,0.47366447897492303
0004,3,2,74,4,2,1,1.33380089999991,Non-sequential,1.5093349258333373,0.47366447897492303
0004,3,2,75,4,3,1,1.2002316999999,Non-sequential,1.5093349258333373,0.47366447897492303
0004,3,2,76,4,3,1,1.23382290000018,Non-sequential,1.5093349258333373,0.47366447897492303
0004,3,2,77,4,1,1,1.25068220000003,Non-sequential,1.5093349258333373,0.47366447897492303
0004,3,2,78,4,3,1,1.2335349,Non-sequential,1.5093349258333373,0.47366447897492303
0004,3,2,79,4,3,1,1.4664623000001,Non-sequential,1.5093349258333373,0.47366447897492303
0004,3,2,80,4,1,0,1.61640949999992,Non-sequential,1.5093349258333373,0.47366447897492303
0004,3,2,81,5,2,1,1.4171553000001,Non-sequential,1.5093349258333373,0.47366447897492303
0004,3,2,82,5,3,1,1.16687079999997,Non-sequential,1.5093349258333373,0.47366447897492303
0004,3,2,83,5,1,1,1.28339970000002,Non-sequential,1.5093349258333373,0.47366447897492303
0004,3,2,84,5,1,1,1.31835450000017,Non-sequential,1.5093349258333373,0.47366447897492303
0004,3,2,85,5,2,1,1.5331248,Non-sequential,1.5093349258333373,0.47366447897492303
0004,3,2,86,5,3,1,1.68366139999989,Non-sequential,1.5093349258333373,0.47366447897492303
0004,3,2,87,5,3,1,1.21675700000014,Non-sequential,1.5093349258333373,0.47366447897492303
0004,3,2,88,5,2,1,1.23411499999997,Non-sequential,1.5093349258333373,0.47366447897492303
0004,3,2,89,5,1,1,1.23395789999995,Non-sequential,1.5093349258333373,0.47366447897492303
0004,3,2,90,5,3,1,1.36680189999993,Non-sequential,1.5093349258333373,0.47366447897492303
0004,3,2,91,5,2,1,1.38365509999994,Non-sequential,1.5093349258333373,0.47366447897492303
0004,3,2,92,5,3,1,1.23400609999999,Non-sequential,1.5093349258333373,0.47366447897492303
0004,3,2,93,5,1,1,1.33344820000002,Non-sequential,1.5093349258333373,0.47366447897492303
0004,3,2,94,5,2,1,1.36717040000008,Non-sequential,1.5093349258333373,0.47366447897492303
0004,3,2,95,5,1,1,2.06710469999985,Non-sequential,1.5093349258333373,0.47366447897492303
0004,3,2,96,5,3,1,1.5674176,Non-sequential,1.5093349258333373,0.47366447897492303
0004,3,2,97,5,2,1,1.48418169999991,Non-sequential,1.5093349258333373,0.47366447897492303
0004,3,2,98,5,3,1,1.98359970000001,Non-sequential,1.5093349258333373,0.47366447897492303
0004,3,2,99,5,1,1,1.43367130000001,Non-sequential,1.5093349258333373,0.47366447897492303
0004,3,2,100,5,2,1,1.24999430000003,Non-sequential,1.5093349258333373,0.47366447897492303
0004,3,2,101,6,3,1,1.15009430000009,Non-sequential,1.5093349258333373,0.47366447897492303
0004,3,2,102,6,1,1,1.33392819999995,Non-sequential,1.5093349258333373,0.47366447897492303
0004,3,2,103,6,2,1,1.3503518,Non-sequential,1.5093349258333373,0.47366447897492303
0004,3,2,104,6,2,1,1.6834945999999,Non-sequential,1.5093349258333373,0.47366447897492303
0004,3,2,105,6,1,1,1.48387760000014,Non-sequential,1.5093349258333373,0.47366447897492303
0004,3,2,106,6,3,1,1.3668318,Non-sequential,1.5093349258333373,0.47366447897492303
0004,3,2,107,6,3,1,1.20041639999999,Non-sequential,1.5093349258333373,0.47366447897492303
0004,3,2,108,6,1,1,1.23361629999999,Non-sequential,1.5093349258333373,0.47366447897492303
0004,3,2,109,6,2,1,1.36691709999991,Non-sequential,1.5093349258333373,0.47366447897492303
0004,3,2,110,6,2,1,1.35019929999999,Non-sequential,1.5093349258333373,0.47366447897492303
0004,3,2,111,6,1,1,1.81656650000014,Non-sequential,1.5093349258333373,0.47366447897492303
0004,3,2,112,6,1,1,1.28354829999989,Non-sequential,1.5093349258333373,0.47366447897492303
0004,3,2,113,6,2,1,1.25060460000009,Non-sequential,1.5093349258333373,0.47366447897492303
0004,3,2,114,6,3,1,1.13363789999994,Non-sequential,1.5093349258333373,0.47366447897492303
0004,3,2,115,6,1,1,1.33542990000001,Non-sequential,1.5093349258333373,0.47366447897492303
0004,3,2,116,6,2,1,1.10017059999996,Non-sequential,1.5093349258333373,0.47366447897492303
0004,3,2,117,6,1,1,1.24992449999991,Non-sequential,1.5093349258333373,0.47366447897492303
0004,3,2,118,6,2,1,1.70227540000019,Non-sequential,1.5093349258333373,0.47366447897492303
0004,3,2,119,6,3,1,1.21708029999991,Non-sequential,1.5093349258333373,0.47366447897492303
0004,3,2,120,6,3,1,1.30056560000003,Non-sequential,1.5093349258333373,0.47366447897492303
0005,4,2,2,1,1,1,2.46674770000391,Non-sequential,1.6048967333335895,0.9946700650605764
0005,4,2,3,1,2,1,1.71692640002584,Non-sequential,1.6048967333335895,0.9946700650605764
0005,4,2,4,1,2,1,1.36691390001215,Non-sequential,1.6048967333335895,0.9946700650605764
0005,4,2,6,1,2,1,2.16698149999138,Non-sequential,1.6048967333335895,0.9946700650605764
0005,4,2,7,1,3,1,1.51694210001733,Non-sequential,1.6048967333335895,0.9946700650605764
0005,4,2,9,1,2,1,3.26692419999745,Non-sequential,1.6048967333335895,0.9946700650605764
0005,4,2,10,1,1,0,3.58363619999727,Non-sequential,1.6048967333335895,0.9946700650605764
0005,4,2,11,1,3,1,1.21698560001096,Non-sequential,1.6048967333335895,0.9946700650605764
0005,4,2,12,1,2,1,2.25192120001884,Non-sequential,1.6048967333335895,0.9946700650605764
0005,4,2,13,1,1,1,1.5501602999866,Non-sequential,1.6048967333335895,0.9946700650605764
0005,4,2,14,1,2,1,1.33360719995108,Non-sequential,1.6048967333335895,0.9946700650605764
0005,4,2,15,1,3,1,1.40031550003914,Non-sequential,1.6048967333335895,0.9946700650605764
0005,4,2,17,1,1,0,1.30041110003367,Non-sequential,1.6048967333335895,0.9946700650605764
0005,4,2,18,1,3,1,1.20024930004729,Non-sequential,1.6048967333335895,0.9946700650605764
0005,4,2,19,1,3,0,2.56691459997091,Non-sequential,1.6048967333335895,0.9946700650605764
0005,4,2,20,1,1,0,2.40033130004304,Non-sequential,1.6048967333335895,0.9946700650605764
0005,4,2,21,2,2,1,2.30061469995417,Non-sequential,1.6048967333335895,0.9946700650605764
0005,4,2,23,2,1,1,1.58358009997755,Non-sequential,1.6048967333335895,0.9946700650605764
0005,4,2,24,2,1,0,1.3677924000076,Non-sequential,1.6048967333335895,0.9946700650605764
0005,4,2,25,2,2,1,1.45017200004077,Non-sequential,1.6048967333335895,0.9946700650605764
0005,4,2,26,2,3,1,1.68358589999843,Non-sequential,1.6048967333335895,0.9946700650605764
0005,4,2,27,2,3,1,1.36706600000616,Non-sequential,1.6048967333335895,0.9946700650605764
0005,4,2,28,2,2,1,1.53370540001197,Non-sequential,1.6048967333335895,0.9946700650605764
0005,4,2,29,2,1,1,1.78559059998952,Non-sequential,1.6048967333335895,0.9946700650605764
0005,4,2,30,2,3,1,1.26684749999549,Non-sequential,1.6048967333335895,0.9946700650605764
0005,4,2,31,2,2,1,1.38368420000188,Non-sequential,1.6048967333335895,0.9946700650605764
0005,4,2,32,2,3,1,1.30017639999278,Non-sequential,1.6048967333335895,0.9946700650605764
0005,4,2,33,2,1,0,1.18356770003447,Non-sequential,1.6048967333335895,0.9946700650605764
0005,4,2,34,2,2,1,1.16680479998467,Non-sequential,1.6048967333335895,0.9946700650605764
0005,4,2,35,2,1,1,1.31677299999865,Non-sequential,1.6048967333335895,0.9946700650605764
0005,4,2,36,2,3,1,1.63356580003165,Non-sequential,1.6048967333335895,0.9946700650605764
0005,4,2,37,2,2,1,1.21689380001044,Non-sequential,1.6048967333335895,0.9946700650605764
0005,4,2,38,2,3,1,3.06700890004868,Non-sequential,1.6048967333335895,0.9946700650605764
0005,4,2,39,2,1,1,1.35033290000865,Non-sequential,1.6048967333335895,0.9946700650605764
0005,4,2,40,2,2,1,1.2003767999704,Non-sequential,1.6048967333335895,0.9946700650605764
0005,4,2,41,3,3,1,1.06685519998427,Non-sequential,1.6048967333335895,0.9946700650605764
0005,4,2,42,3,1,0,1.16631540004164,Non-sequential,1.6048967333335895,0.9946700650605764
0005,4,2,43,3,2,1,1.3000964000239,Non-sequential,1.6048967333335895,0.9946700650605764
0005,4,2,44,3,2,1,1.21695999999065,Non-sequential,1.6048967333335895,0.9946700650605764
0005,4,2,45,3,1,1,1.28366729995469,Non-sequential,1.6048967333335895,0.9946700650605764
0005,4,2,46,3,3,1,1.13369029999012,Non-sequential,1.6048967333335895,0.9946700650605764
0005,4,2,47,3,3,1,1.43371399998432,Non-sequential,1.6048967333335895,0.9946700650605764
0005,4,2,48,3,1,0,1.13367089995882,Non-sequential,1.6048967333335895,0.9946700650605764
0005,4,2,49,3,2,1,1.40020239999285,Non-sequential,1.6048967333335895,0.9946700650605764
0005,4,2,50,3,2,1,1.28488290001405,Non-sequential,1.6048967333335895,0.9946700650605764
0005,4,2,51,3,1,1,1.76683869998669,Non-sequential,1.6048967333335895,0.9946700650605764
0005,4,2,52,3,1,0,1.18357319995994,Non-sequential,1.6048967333335895,0.9946700650605764
0005,4,2,53,3,2,1,1.43545119999908,Non-sequential,1.6048967333335895,0.9946700650605764
0005,4,2,54,3,3,1,1.28351420001127,Non-sequential,1.6048967333335895,0.9946700650605764
0005,4,2,55,3,1,1,1.25139679998392,Non-sequential,1.6048967333335895,0.9946700650605764
0005,4,2,56,3,2,1,1.45027570001548,Non-sequential,1.6048967333335895,0.9946700650605764
0005,4,2,57,3,1,0,1.15049169998383,Non-sequential,1.6048967333335895,0.9946700650605764
0005,4,2,58,3,2,1,1.25034620001679,Non-sequential,1.6048967333335895,0.9946700650605764
0005,4,2,59,3,3,1,1.26831300003687,Non-sequential,1.6048967333335895,0.9946700650605764
0005,4,2,60,3,3,1,1.2828171000001,Non-sequential,1.6048967333335895,0.9946700650605764
0005,4,2,61,4,3,1,1.33344999997644,Non-sequential,1.6048967333335895,0.9946700650605764
0005,4,2,62,4,1,1,1.50019329995848,Non-sequential,1.6048967333335895,0.9946700650605764
0005,4,2,63,4,2,1,1.35029770003166,Non-sequential,1.6048967333335895,0.9946700650605764
0005,4,2,64,4,2,1,1.23373020003783,Non-sequential,1.6048967333335895,0.9946700650605764
0005,4,2,65,4,1,0,1.43363540002611,Non-sequential,1.6048967333335895,0.9946700650605764
0005,4,2,66,4,2,1,1.95029860001523,Non-sequential,1.6048967333335895,0.9946700650605764
0005,4,2,67,4,3,1,1.40037649997976,Non-sequential,1.6048967333335895,0.9946700650605764
0005,4,2,68,4,1,1,1.33360209997045,Non-sequential,1.6048967333335895,0.9946700650605764
0005,4,2,69,4,2,1,1.33351749996655,Non-sequential,1.6048967333335895,0.9946700650605764
0005,4,2,70,4,1,0,1.13369310001144,Non-sequential,1.6048967333335895,0.9946700650605764
0005,4,2,71,4,3,1,1.23369910003385,Non-sequential,1.6048967333335895,0.9946700650605764
0005,4,2,72,4,2,1,1.36695150000742,Non-sequential,1.6048967333335895,0.9946700650605764
0005,4,2,73,4,1,1,1.5841320999898,Non-sequential,1.6048967333335895,0.9946700650605764
0005,4,2,74,4,2,1,1.38358359999256,Non-sequential,1.6048967333335895,0.9946700650605764
0005,4,2,75,4,3,1,1.08369339996716,Non-sequential,1.6048967333335895,0.9946700650605764
0005,4,2,76,4,3,1,1.38370760000544,Non-sequential,1.6048967333335895,0.9946700650605764
0005,4,2,77,4,1,0,1.30034479999449,Non-sequential,1.6048967333335895,0.9946700650605764
0005,4,2,78,4,3,1,1.30021730001317,Non-sequential,1.6048967333335895,0.9946700650605764
0005,4,2,79,4,3,1,1.21692889998667,Non-sequential,1.6048967333335895,0.9946700650605764
0005,4,2,80,4,1,0,1.41705480002565,Non-sequential,1.6048967333335895,0.9946700650605764
0005,4,2,81,5,2,1,1.81774939998286,Non-sequential,1.6048967333335895,0.9946700650605764
0005,4,2,82,5,3,1,1.3002686999971,Non-sequential,1.6048967333335895,0.9946700650605764
0005,4,2,83,5,1,1,1.28369059995748,Non-sequential,1.6048967333335895,0.9946700650605764
0005,4,2,84,5,1,0,1.1668032000307,Non-sequential,1.6048967333335895,0.9946700650605764
0005,4,2,85,5,2,1,1.1836120999651,Non-sequential,1.6048967333335895,0.9946700650605764
0005,4,2,86,5,3,1,1.38371449999977,Non-sequential,1.6048967333335895,0.9946700650605764
0005,4,2,87,5,3,1,1.30018020002171,Non-sequential,1.6048967333335895,0.9946700650605764
0005,4,2,88,5,2,1,1.25046780001139,Non-sequential,1.6048967333335895,0.9946700650605764
0005,4,2,89,5,1,1,1.20023550000042,Non-sequential,1.6048967333335895,0.9946700650605764
0005,4,2,90,5,3,1,1.15021699998761,Non-sequential,1.6048967333335895,0.9946700650605764
0005,4,2,91,5,2,0,1.18367589998525,Non-sequential,1.6048967333335895,0.9946700650605764
0005,4,2,92,5,3,1,1.03373099997407,Non-sequential,1.6048967333335895,0.9946700650605764
0005,4,2,93,5,1,0,1.21914960001595,Non-sequential,1.6048967333335895,0.9946700650605764
0005,4,2,94,5,2,1,1.30199400003767,Non-sequential,1.6048967333335895,0.9946700650605764
0005,4,2,95,5,1,1,1.28381069999887,Non-sequential,1.6048967333335895,0.9946700650605764
0005,4,2,96,5,3,1,1.6335020000115,Non-sequential,1.6048967333335895,0.9946700650605764
0005,4,2,97,5,2,1,1.28347789996769,Non-sequential,1.6048967333335895,0.9946700650605764
0005,4,2,98,5,3,1,1.46694780001417,Non-sequential,1.6048967333335895,0.9946700650605764
0005,4,2,99,5,1,1,1.73378050001338,Non-sequential,1.6048967333335895,0.9946700650605764
0005,4,2,100,5,2,1,1.11732660001144,Non-sequential,1.6048967333335895,0.9946700650605764
0005,4,2,101,6,3,1,1.20030889997724,Non-sequential,1.6048967333335895,0.9946700650605764
0005,4,2,102,6,1,0,1.23366369999712,Non-sequential,1.6048967333335895,0.9946700650605764
0005,4,2,103,6,2,1,1.25039360002847,Non-sequential,1.6048967333335895,0.9946700650605764
0005,4,2,104,6,2,1,1.13377139996737,Non-sequential,1.6048967333335895,0.9946700650605764
0005,4,2,105,6,1,1,1.30033090000506,Non-sequential,1.6048967333335895,0.9946700650605764
0005,4,2,106,6,3,1,1.11700369999744,Non-sequential,1.6048967333335895,0.9946700650605764
0005,4,2,107,6,3,1,1.30022440000903,Non-sequential,1.6048967333335895,0.9946700650605764
0005,4,2,108,6,1,0,1.11750500003109,Non-sequential,1.6048967333335895,0.9946700650605764
0005,4,2,109,6,2,1,1.20023120002588,Non-sequential,1.6048967333335895,0.9946700650605764
0005,4,2,110,6,2,1,1.1694849000196,Non-sequential,1.6048967333335895,0.9946700650605764
0005,4,2,111,6,1,1,1.30028529994888,Non-sequential,1.6048967333335895,0.9946700650605764
0005,4,2,112,6,1,0,1.11692910001148,Non-sequential,1.6048967333335895,0.9946700650605764
0005,4,2,113,6,2,1,1.23374969995348,Non-sequential,1.6048967333335895,0.9946700650605764
0005,4,2,114,6,3,1,1.38375300000189,Non-sequential,1.6048967333335895,0.9946700650605764
0005,4,2,115,6,1,1,1.0668360000127,Non-sequential,1.6048967333335895,0.9946700650605764
0005,4,2,116,6,2,1,1.16853349999292,Non-sequential,1.6048967333335895,0.9946700650605764
0005,4,2,117,6,1,0,1.1836296999827,Non-sequential,1.6048967333335895,0.9946700650605764
0005,4,2,118,6,2,1,1.21691939997254,Non-sequential,1.6048967333335895,0.9946700650605764
0005,4,2,119,6,3,1,1.23352710000472,Non-sequential,1.6048967333335895,0.9946700650605764
0005,4,2,120,6,3,1,1.28360659995815,Non-sequential,1.6048967333335895,0.9946700650605764
0006,5,2,4,1,2,1,2.0337510999525,Non-sequential,1.4505092847438223,0.516739753582718
0006,5,2,7,1,3,1,1.55025880003814,Non-sequential,1.4505092847438223,0.516739753582718
0006,5,2,10,1,1,0,1.65023770002881,Non-sequential,1.4505092847438223,0.516739753582718
0006,5,2,11,1,3,1,1.71639710001182,Non-sequential,1.4505092847438223,0.516739753582718
0006,5,2,13,1,1,1,2.2169057999854,Non-sequential,1.4505092847438223,0.516739753582718
0006,5,2,14,1,2,1,1.6502196000074,Non-sequential,1.4505092847438223,0.516739753582718
0006,5,2,15,1,3,1,1.36707109998679,Non-sequential,1.4505092847438223,0.516739753582718
0006,5,2,16,1,3,1,1.2503379000118,Non-sequential,1.4505092847438223,0.516739753582718
0006,5,2,17,1,1,1,1.61683080001967,Non-sequential,1.4505092847438223,0.516739753582718
0006,5,2,18,1,3,1,1.28347690001829,Non-sequential,1.4505092847438223,0.516739753582718
0006,5,2,19,1,3,1,1.18371179996757,Non-sequential,1.4505092847438223,0.516739753582718
0006,5,2,20,1,1,1,1.30008620000444,Non-sequential,1.4505092847438223,0.516739753582718
0006,5,2,21,2,2,1,2.46835849998752,Non-sequential,1.4505092847438223,0.516739753582718
0006,5,2,22,2,3,1,1.23375919996761,Non-sequential,1.4505092847438223,0.516739753582718
0006,5,2,23,2,1,0,2.28362040000502,Non-sequential,1.4505092847438223,0.516739753582718
0006,5,2,24,2,1,0,1.60055510001257,Non-sequential,1.4505092847438223,0.516739753582718
0006,5,2,25,2,2,1,1.40036469994811,Non-sequential,1.4505092847438223,0.516739753582718
0006,5,2,26,2,3,1,1.35015349998139,Non-sequential,1.4505092847438223,0.516739753582718
0006,5,2,27,2,3,1,1.20018139999593,Non-sequential,1.4505092847438223,0.516739753582718
0006,5,2,28,2,2,1,1.91752120002639,Non-sequential,1.4505092847438223,0.516739753582718
0006,5,2,29,2,1,0,1.40012189996196,Non-sequential,1.4505092847438223,0.516739753582718
0006,5,2,30,2,3,1,1.21973009995418,Non-sequential,1.4505092847438223,0.516739753582718
0006,5,2,31,2,2,1,1.6002937000012,Non-sequential,1.4505092847438223,0.516739753582718
0006,5,2,32,2,3,1,1.18366239999887,Non-sequential,1.4505092847438223,0.516739753582718
0006,5,2,33,2,1,0,1.33358889998635,Non-sequential,1.4505092847438223,0.516739753582718
0006,5,2,34,2,2,1,1.35029030003352,Non-sequential,1.4505092847438223,0.516739753582718
0006,5,2,35,2,1,0,1.16683950001607,Non-sequential,1.4505092847438223,0.516739753582718
0006,5,2,36,2,3,1,1.18336780002574,Non-sequential,1.4505092847438223,0.516739753582718
0006,5,2,37,2,2,1,1.23378750000848,Non-sequential,1.4505092847438223,0.516739753582718
0006,5,2,38,2,3,1,1.21662839996861,Non-sequential,1.4505092847438223,0.516739753582718
0006,5,2,39,2,1,0,1.25049359997502,Non-sequential,1.4505092847438223,0.516739753582718
0006,5,2,40,2,2,1,1.23370560002513,Non-sequential,1.4505092847438223,0.516739753582718
0006,5,2,41,3,3,1,1.11701709998306,Non-sequential,1.4505092847438223,0.516739753582718
0006,5,2,42,3,1,0,1.5170392,Non-sequential,1.4505092847438223,0.516739753582718
0006,5,2,43,3,2,1,1.21690170001239,Non-sequential,1.4505092847438223,0.516739753582718
0006,5,2,44,3,2,1,1.20088319998467,Non-sequential,1.4505092847438223,0.516739753582718
0006,5,2,45,3,1,1,1.3336175000295,Non-sequential,1.4505092847438223,0.516739753582718
0006,5,2,46,3,3,1,1.25033909996273,Non-sequential,1.4505092847438223,0.516739753582718
0006,5,2,47,3,3,1,1.08380449999822,Non-sequential,1.4505092847438223,0.516739753582718
0006,5,2,48,3,1,1,1.15027320000809,Non-sequential,1.4505092847438223,0.516739753582718
0006,5,2,49,3,2,1,1.6838045999757,Non-sequential,1.4505092847438223,0.516739753582718
0006,5,2,50,3,2,1,1.53358020004816,Non-sequential,1.4505092847438223,0.516739753582718
0006,5,2,51,3,1,0,1.36752950004302,Non-sequential,1.4505092847438223,0.516739753582718
0006,5,2,52,3,1,1,1.43354030000046,Non-sequential,1.4505092847438223,0.516739753582718
0006,5,2,53,3,2,1,1.55095569998957,Non-sequential,1.4505092847438223,0.516739753582718
0006,5,2,54,3,3,1,1.25037030002568,Non-sequential,1.4505092847438223,0.516739753582718
0006,5,2,55,3,1,1,1.60030300001381,Non-sequential,1.4505092847438223,0.516739753582718
0006,5,2,56,3,2,1,1.400103699998,Non-sequential,1.4505092847438223,0.516739753582718
0006,5,2,57,3,1,1,1.28363810002338,Non-sequential,1.4505092847438223,0.516739753582718
0006,5,2,58,3,2,1,1.30040529998951,Non-sequential,1.4505092847438223,0.516739753582718
0006,5,2,59,3,3,1,1.11686079995707,Non-sequential,1.4505092847438223,0.516739753582718
0006,5,2,60,3,3,1,1.15028589998838,Non-sequential,1.4505092847438223,0.516739753582718
0006,5,2,61,4,3,1,1.20037050003884,Non-sequential,1.4505092847438223,0.516739753582718
0006,5,2,62,4,1,1,1.40070930001093,Non-sequential,1.4505092847438223,0.516739753582718
0006,5,2,63,4,2,1,1.51705069997115,Non-sequential,1.4505092847438223,0.516739753582718
0006,5,2,64,4,2,1,1.16780980001204,Non-sequential,1.4505092847438223,0.516739753582718
0006,5,2,65,4,1,0,1.43336149997776,Non-sequential,1.4505092847438223,0.516739753582718
0006,5,2,66,4,2,1,1.18336699996144,Non-sequential,1.4505092847438223,0.516739753582718
0006,5,2,67,4,3,1,1.1517810999648599,Non-sequential,1.4505092847438223,0.516739753582718
0006,5,2,68,4,1,0,1.45042099995771,Non-sequential,1.4505092847438223,0.516739753582718
0006,5,2,69,4,2,1,1.60038160003023,Non-sequential,1.4505092847438223,0.516739753582718
0006,5,2,70,4,1,1,1.45078409998678,Non-sequential,1.4505092847438223,0.516739753582718
0006,5,2,71,4,3,1,1.14995969994925,Non-sequential,1.4505092847438223,0.516739753582718
0006,5,2,72,4,2,1,1.33349470002577,Non-sequential,1.4505092847438223,0.516739753582718
0006,5,2,73,4,1,0,1.38372899999376,Non-sequential,1.4505092847438223,0.516739753582718
0006,5,2,74,4,2,1,1.23335499997484,Non-sequential,1.4505092847438223,0.516739753582718
0006,5,2,75,4,3,1,1.13331790000666,Non-sequential,1.4505092847438223,0.516739753582718
0006,5,2,76,4,3,1,1.21667350002099,Non-sequential,1.4505092847438223,0.516739753582718
0006,5,2,77,4,1,1,1.31696690001991,Non-sequential,1.4505092847438223,0.516739753582718
0006,5,2,78,4,3,1,1.21743650001008,Non-sequential,1.4505092847438223,0.516739753582718
0006,5,2,79,4,3,1,1.20024919998832,Non-sequential,1.4505092847438223,0.516739753582718
0006,5,2,80,4,1,1,1.46713730000192,Non-sequential,1.4505092847438223,0.516739753582718
0006,5,2,81,5,2,1,1.53337449999526,Non-sequential,1.4505092847438223,0.516739753582718
0006,5,2,82,5,3,1,1.13387949997559,Non-sequential,1.4505092847438223,0.516739753582718
0006,5,2,83,5,1,0,1.31825959996786,Non-sequential,1.4505092847438223,0.516739753582718
0006,5,2,84,5,1,1,1.25087749998784,Non-sequential,1.4505092847438223,0.516739753582718
0006,5,2,85,5,2,1,1.20008399995277,Non-sequential,1.4505092847438223,0.516739753582718
0006,5,2,86,5,3,1,1.20024320000084,Non-sequential,1.4505092847438223,0.516739753582718
0006,5,2,87,5,3,1,1.30016410001554,Non-sequential,1.4505092847438223,0.516739753582718
0006,5,2,88,5,2,1,1.28364219999639,Non-sequential,1.4505092847438223,0.516739753582718
0006,5,2,89,5,1,1,1.36699870001758,Non-sequential,1.4505092847438223,0.516739753582718
0006,5,2,90,5,3,1,1.05029149999609,Non-sequential,1.4505092847438223,0.516739753582718
0006,5,2,91,5,2,1,1.21675280004274,Non-sequential,1.4505092847438223,0.516739753582718
0006,5,2,92,5,3,1,1.20071899995673,Non-sequential,1.4505092847438223,0.516739753582718
0006,5,2,93,5,1,1,1.36708380002528,Non-sequential,1.4505092847438223,0.516739753582718
0006,5,2,94,5,2,1,1.41694540000753,Non-sequential,1.4505092847438223,0.516739753582718
0006,5,2,95,5,1,0,1.20013339997968,Non-sequential,1.4505092847438223,0.516739753582718
0006,5,2,96,5,3,1,1.11635300004855,Non-sequential,1.4505092847438223,0.516739753582718
0006,5,2,97,5,2,1,1.13489849999314,Non-sequential,1.4505092847438223,0.516739753582718
0006,5,2,98,5,3,1,1.26761270000134,Non-sequential,1.4505092847438223,0.516739753582718
0006,5,2,99,5,1,1,1.76692189997993,Non-sequential,1.4505092847438223,0.516739753582718
0006,5,2,100,5,2,1,1.15062410000246,Non-sequential,1.4505092847438223,0.516739753582718
0006,5,2,101,6,3,1,1.1531457999954,Non-sequential,1.4505092847438223,0.516739753582718
0006,5,2,102,6,1,1,1.30117059999611,Non-sequential,1.4505092847438223,0.516739753582718
0006,5,2,103,6,2,1,1.16687369998544,Non-sequential,1.4505092847438223,0.516739753582718
0006,5,2,104,6,2,1,1.50027730001602,Non-sequential,1.4505092847438223,0.516739753582718
0006,5,2,105,6,1,0,1.26686630002223,Non-sequential,1.4505092847438223,0.516739753582718
0006,5,2,106,6,3,1,1.20049899996957,Non-sequential,1.4505092847438223,0.516739753582718
0006,5,2,107,6,3,1,1.11708719999297,Non-sequential,1.4505092847438223,0.516739753582718
0006,5,2,108,6,1,1,1.36706819996471,Non-sequential,1.4505092847438223,0.516739753582718
0006,5,2,109,6,2,1,1.56904560001567,Non-sequential,1.4505092847438223,0.516739753582718
0006,5,2,110,6,2,1,1.21685329999309,Non-sequential,1.4505092847438223,0.516739753582718
0006,5,2,111,6,1,0,1.2666863000486,Non-sequential,1.4505092847438223,0.516739753582718
0006,5,2,112,6,1,1,1.15032069996232,Non-sequential,1.4505092847438223,0.516739753582718
0006,5,2,113,6,2,1,1.30023709998932,Non-sequential,1.4505092847438223,0.516739753582718
0006,5,2,114,6,3,1,1.08501929999329,Non-sequential,1.4505092847438223,0.516739753582718
0006,5,2,115,6,1,0,1.26852159999544,Non-sequential,1.4505092847438223,0.516739753582718
0006,5,2,116,6,2,1,1.68363970000064,Non-sequential,1.4505092847438223,0.516739753582718
0006,5,2,117,6,1,0,1.18354470003396,Non-sequential,1.4505092847438223,0.516739753582718
0006,5,2,118,6,2,1,1.11762919998728,Non-sequential,1.4505092847438223,0.516739753582718
0006,5,2,119,6,3,1,1.11813770001754,Non-sequential,1.4505092847438223,0.516739753582718
0006,5,2,120,6,3,1,1.16675949998898,Non-sequential,1.4505092847438223,0.516739753582718
0007,6,2,1,1,3,1,3.71703499997966,Non-sequential,2.119050064166853,1.35792514042199
0007,6,2,4,1,2,1,4.00032880000072,Non-sequential,2.119050064166853,1.35792514042199
0007,6,2,5,1,1,1,3.25055879994761,Non-sequential,2.119050064166853,1.35792514042199
0007,6,2,7,1,3,1,3.70013219997054,Non-sequential,2.119050064166853,1.35792514042199
0007,6,2,9,1,2,1,3.06687179999426,Non-sequential,2.119050064166853,1.35792514042199
0007,6,2,10,1,1,1,4.00029840000207,Non-sequential,2.119050064166853,1.35792514042199
0007,6,2,11,1,3,1,3.28352629998699,Non-sequential,2.119050064166853,1.35792514042199
0007,6,2,14,1,2,1,2.76655090000713,Non-sequential,2.119050064166853,1.35792514042199
0007,6,2,15,1,3,1,2.16660100000445,Non-sequential,2.119050064166853,1.35792514042199
0007,6,2,16,1,3,1,1.90128859999822,Non-sequential,2.119050064166853,1.35792514042199
0007,6,2,17,1,1,1,2.95016960002249,Non-sequential,2.119050064166853,1.35792514042199
0007,6,2,18,1,3,1,1.74946890003048,Non-sequential,2.119050064166853,1.35792514042199
0007,6,2,19,1,3,1,1.533355499967,Non-sequential,2.119050064166853,1.35792514042199
0007,6,2,20,1,1,1,2.31700280000223,Non-sequential,2.119050064166853,1.35792514042199
0007,6,2,21,2,2,1,2.35045130003709,Non-sequential,2.119050064166853,1.35792514042199
0007,6,2,22,2,3,1,1.45034450001549,Non-sequential,2.119050064166853,1.35792514042199
0007,6,2,23,2,1,0,2.21685960004106,Non-sequential,2.119050064166853,1.35792514042199
0007,6,2,24,2,1,1,2.76702400000067,Non-sequential,2.119050064166853,1.35792514042199
0007,6,2,25,2,2,1,2.23387300001923,Non-sequential,2.119050064166853,1.35792514042199
0007,6,2,26,2,3,1,1.53362679999555,Non-sequential,2.119050064166853,1.35792514042199
0007,6,2,27,2,3,1,1.58370610000566,Non-sequential,2.119050064166853,1.35792514042199
0007,6,2,28,2,2,1,2.0009282999672,Non-sequential,2.119050064166853,1.35792514042199
0007,6,2,29,2,1,0,2.56675469997572,Non-sequential,2.119050064166853,1.35792514042199
0007,6,2,30,2,3,1,1.63321860000724,Non-sequential,2.119050064166853,1.35792514042199
0007,6,2,31,2,2,1,2.16677839995828,Non-sequential,2.119050064166853,1.35792514042199
0007,6,2,32,2,3,1,2.20094030001201,Non-sequential,2.119050064166853,1.35792514042199
0007,6,2,33,2,1,1,2.40187180001521,Non-sequential,2.119050064166853,1.35792514042199
0007,6,2,34,2,2,1,2.80039350001607,Non-sequential,2.119050064166853,1.35792514042199
0007,6,2,35,2,1,0,3.4683543999563,Non-sequential,2.119050064166853,1.35792514042199
0007,6,2,36,2,3,1,1.3336707999697,Non-sequential,2.119050064166853,1.35792514042199
0007,6,2,37,2,2,1,2.19989220000571,Non-sequential,2.119050064166853,1.35792514042199
0007,6,2,38,2,3,1,2.88558709999779,Non-sequential,2.119050064166853,1.35792514042199
0007,6,2,39,2,1,0,2.28387480002129,Non-sequential,2.119050064166853,1.35792514042199
0007,6,2,40,2,2,1,1.53366260003531,Non-sequential,2.119050064166853,1.35792514042199
0007,6,2,41,3,3,1,1.51697639998747,Non-sequential,2.119050064166853,1.35792514042199
0007,6,2,42,3,1,1,1.46687740000198,Non-sequential,2.119050064166853,1.35792514042199
0007,6,2,43,3,2,1,1.33513019996462,Non-sequential,2.119050064166853,1.35792514042199
0007,6,2,44,3,2,1,3.3509682000149,Non-sequential,2.119050064166853,1.35792514042199
0007,6,2,45,3,1,0,1.63346859999001,Non-sequential,2.119050064166853,1.35792514042199
0007,6,2,46,3,3,1,1.20093509997241,Non-sequential,2.119050064166853,1.35792514042199
0007,6,2,47,3,3,1,1.26608129998203,Non-sequential,2.119050064166853,1.35792514042199
0007,6,2,48,3,1,1,1.41784220002592,Non-sequential,2.119050064166853,1.35792514042199
0007,6,2,50,3,2,1,1.55026390001876,Non-sequential,2.119050064166853,1.35792514042199
0007,6,2,51,3,1,0,4.54980949999299,Non-sequential,2.119050064166853,1.35792514042199
0007,6,2,52,3,1,1,2.78342190000694,Non-sequential,2.119050064166853,1.35792514042199
0007,6,2,53,3,2,1,1.26708910003072,Non-sequential,2.119050064166853,1.35792514042199
0007,6,2,54,3,3,1,1.26713659998495,Non-sequential,2.119050064166853,1.35792514042199
0007,6,2,55,3,1,0,3.53356830001576,Non-sequential,2.119050064166853,1.35792514042199
0007,6,2,56,3,2,1,1.50016950001009,Non-sequential,2.119050064166853,1.35792514042199
0007,6,2,57,3,1,1,1.55030169995734,Non-sequential,2.119050064166853,1.35792514042199
0007,6,2,58,3,2,1,1.30049230001168,Non-sequential,2.119050064166853,1.35792514042199
0007,6,2,59,3,3,1,1.22070469998289,Non-sequential,2.119050064166853,1.35792514042199
0007,6,2,60,3,3,1,2.61668859998463,Non-sequential,2.119050064166853,1.35792514042199
0007,6,2,61,4,3,1,1.25019799999427,Non-sequential,2.119050064166853,1.35792514042199
0007,6,2,62,4,1,0,1.91685719997622,Non-sequential,2.119050064166853,1.35792514042199
0007,6,2,63,4,2,1,3.35025240003597,Non-sequential,2.119050064166853,1.35792514042199
0007,6,2,64,4,2,1,1.26688080001622,Non-sequential,2.119050064166853,1.35792514042199
0007,6,2,65,4,1,1,1.31676700001117,Non-sequential,2.119050064166853,1.35792514042199
0007,6,2,66,4,2,1,2.01678700000048,Non-sequential,2.119050064166853,1.35792514042199
0007,6,2,67,4,3,1,1.53362019994529,Non-sequential,2.119050064166853,1.35792514042199
0007,6,2,68,4,1,0,1.46712400001707,Non-sequential,2.119050064166853,1.35792514042199
0007,6,2,69,4,2,1,3.15005060000112,Non-sequential,2.119050064166853,1.35792514042199
0007,6,2,70,4,1,1,1.3003902999917,Non-sequential,2.119050064166853,1.35792514042199
0007,6,2,71,4,3,1,1.28368910000427,Non-sequential,2.119050064166853,1.35792514042199
0007,6,2,72,4,2,1,1.56699080002727,Non-sequential,2.119050064166853,1.35792514042199
0007,6,2,73,4,1,0,1.33564120001392,Non-sequential,2.119050064166853,1.35792514042199
0007,6,2,74,4,2,1,1.23330409999471,Non-sequential,2.119050064166853,1.35792514042199
0007,6,2,75,4,3,1,1.2168199000298,Non-sequential,2.119050064166853,1.35792514042199
0007,6,2,76,4,3,1,1.30046330002369,Non-sequential,2.119050064166853,1.35792514042199
0007,6,2,77,4,1,1,1.23324809997575,Non-sequential,2.119050064166853,1.35792514042199
0007,6,2,78,4,3,1,1.26700469997013,Non-sequential,2.119050064166853,1.35792514042199
0007,6,2,79,4,3,1,1.23350019997451,Non-sequential,2.119050064166853,1.35792514042199
0007,6,2,80,4,1,1,1.30108740000287,Non-sequential,2.119050064166853,1.35792514042199
0007,6,2,81,5,2,1,2.66690929996548,Non-sequential,2.119050064166853,1.35792514042199
0007,6,2,82,5,3,1,1.20058159995824,Non-sequential,2.119050064166853,1.35792514042199
0007,6,2,83,5,1,0,1.56612660002429,Non-sequential,2.119050064166853,1.35792514042199
0007,6,2,84,5,1,1,1.21703389997128,Non-sequential,2.119050064166853,1.35792514042199
0007,6,2,85,5,2,1,1.20017279998865,Non-sequential,2.119050064166853,1.35792514042199
0007,6,2,86,5,3,1,1.30005920003168,Non-sequential,2.119050064166853,1.35792514042199
0007,6,2,87,5,3,1,1.23353169998154,Non-sequential,2.119050064166853,1.35792514042199
0007,6,2,88,5,2,1,1.53426819999004,Non-sequential,2.119050064166853,1.35792514042199
0007,6,2,89,5,1,0,1.33343709999463,Non-sequential,2.119050064166853,1.35792514042199
0007,6,2,90,5,3,1,2.86708509997698,Non-sequential,2.119050064166853,1.35792514042199
0007,6,2,91,5,2,1,1.25016249995679,Non-sequential,2.119050064166853,1.35792514042199
0007,6,2,92,5,3,1,1.10011419997318,Non-sequential,2.119050064166853,1.35792514042199
0007,6,2,93,5,1,1,1.30014850001317,Non-sequential,2.119050064166853,1.35792514042199
0007,6,2,94,5,2,1,1.2836162999738,Non-sequential,2.119050064166853,1.35792514042199
0007,6,2,95,5,1,0,2.50021509994986,Non-sequential,2.119050064166853,1.35792514042199
0007,6,2,96,5,3,1,1.3338012000313,Non-sequential,2.119050064166853,1.35792514042199
0007,6,2,97,5,2,1,1.31682449998334,Non-sequential,2.119050064166853,1.35792514042199
0007,6,2,98,5,3,1,1.33385170000838,Non-sequential,2.119050064166853,1.35792514042199
0007,6,2,99,5,1,0,1.45004259998677,Non-sequential,2.119050064166853,1.35792514042199
0007,6,2,100,5,2,1,1.23466440004995,Non-sequential,2.119050064166853,1.35792514042199
0007,6,2,101,6,3,1,1.7353367000469,Non-sequential,2.119050064166853,1.35792514042199
0007,6,2,102,6,1,1,1.21703090000665,Non-sequential,2.119050064166853,1.35792514042199
0007,6,2,103,6,2,1,1.16662920004455,Non-sequential,2.119050064166853,1.35792514042199
0007,6,2,104,6,2,1,2.25089600001229,Non-sequential,2.119050064166853,1.35792514042199
0007,6,2,105,6,1,0,1.80024930002401,Non-sequential,2.119050064166853,1.35792514042199
0007,6,2,106,6,3,1,1.18353410001146,Non-sequential,2.119050064166853,1.35792514042199
0007,6,2,107,6,3,1,1.06695130001754,Non-sequential,2.119050064166853,1.35792514042199
0007,6,2,108,6,1,1,1.15043219999643,Non-sequential,2.119050064166853,1.35792514042199
0007,6,2,109,6,2,1,1.26729749998776,Non-sequential,2.119050064166853,1.35792514042199
0007,6,2,110,6,2,1,1.03370840003481,Non-sequential,2.119050064166853,1.35792514042199
0007,6,2,111,6,1,0,1.21697690000292,Non-sequential,2.119050064166853,1.35792514042199
0007,6,2,112,6,1,1,1.01699280005414,Non-sequential,2.119050064166853,1.35792514042199
0007,6,2,113,6,2,1,1.03442619997077,Non-sequential,2.119050064166853,1.35792514042199
0007,6,2,114,6,3,1,2.28358590003336,Non-sequential,2.119050064166853,1.35792514042199
0007,6,2,115,6,1,0,1.16686719999416,Non-sequential,2.119050064166853,1.35792514042199
0007,6,2,116,6,2,1,2.51697570004035,Non-sequential,2.119050064166853,1.35792514042199
0007,6,2,117,6,1,1,1.10019069997361,Non-sequential,2.119050064166853,1.35792514042199
0007,6,2,118,6,2,1,1.13399410003331,Non-sequential,2.119050064166853,1.35792514042199
0007,6,2,119,6,3,1,1.08336140000029,Non-sequential,2.119050064166853,1.35792514042199
0007,6,2,120,6,3,1,1.16686210001353,Non-sequential,2.119050064166853,1.35792514042199
0008,6,1,3,1,2,1,1.48335719999159,Sequential,1.51408334083244,0.5953229286997167
0008,6,1,4,1,2,1,1.61702500001411,Sequential,1.51408334083244,0.5953229286997167
0008,6,1,5,1,1,1,1.76647450000746,Sequential,1.51408334083244,0.5953229286997167
0008,6,1,6,1,2,1,1.58496730000479,Sequential,1.51408334083244,0.5953229286997167
0008,6,1,7,1,3,0,1.30027770000743,Sequential,1.51408334083244,0.5953229286997167
0008,6,1,9,1,2,1,1.76703990000533,Sequential,1.51408334083244,0.5953229286997167
0008,6,1,10,1,1,1,1.83374800000456,Sequential,1.51408334083244,0.5953229286997167
0008,6,1,11,1,3,1,1.78460800001631,Sequential,1.51408334083244,0.5953229286997167
0008,6,1,12,1,2,1,1.5830892000231,Sequential,1.51408334083244,0.5953229286997167
0008,6,1,13,1,1,1,1.61688729998423,Sequential,1.51408334083244,0.5953229286997167
0008,6,1,14,1,2,1,1.68446519999998,Sequential,1.51408334083244,0.5953229286997167
0008,6,1,15,1,3,1,1.43319209999754,Sequential,1.51408334083244,0.5953229286997167
0008,6,1,16,1,3,1,1.75028420001036,Sequential,1.51408334083244,0.5953229286997167
0008,6,1,17,1,1,1,1.63299600000028,Sequential,1.51408334083244,0.5953229286997167
0008,6,1,18,1,3,1,1.31701349999639,Sequential,1.51408334083244,0.5953229286997167
0008,6,1,19,1,3,1,1.70027329999721,Sequential,1.51408334083244,0.5953229286997167
0008,6,1,20,1,1,1,1.73383070001728,Sequential,1.51408334083244,0.5953229286997167
0008,6,1,21,2,2,1,1.86743309997837,Sequential,1.51408334083244,0.5953229286997167
0008,6,1,22,2,3,1,1.88384210001095,Sequential,1.51408334083244,0.5953229286997167
0008,6,1,23,2,1,1,1.96677970001474,Sequential,1.51408334083244,0.5953229286997167
0008,6,1,24,2,1,1,1.85014020002563,Sequential,1.51408334083244,0.5953229286997167
0008,6,1,25,2,2,1,1.65081309998641,Sequential,1.51408334083244,0.5953229286997167
0008,6,1,26,2,3,1,1.58422920000157,Sequential,1.51408334083244,0.5953229286997167
0008,6,1,27,2,3,1,1.56657070000074,Sequential,1.51408334083244,0.5953229286997167
0008,6,1,28,2,2,1,1.31647369998973,Sequential,1.51408334083244,0.5953229286997167
0008,6,1,29,2,1,1,1.5844611999928,Sequential,1.51408334083244,0.5953229286997167
0008,6,1,30,2,3,1,1.70073309997679,Sequential,1.51408334083244,0.5953229286997167
0008,6,1,31,2,2,1,1.68381809999119,Sequential,1.51408334083244,0.5953229286997167
0008,6,1,32,2,3,1,1.21698179998202,Sequential,1.51408334083244,0.5953229286997167
0008,6,1,33,2,1,1,1.68324189999839,Sequential,1.51408334083244,0.5953229286997167
0008,6,1,34,2,2,1,1.3852240999986,Sequential,1.51408334083244,0.5953229286997167
0008,6,1,35,2,1,1,1.43378429999575,Sequential,1.51408334083244,0.5953229286997167
0008,6,1,36,2,3,1,1.36670199999935,Sequential,1.51408334083244,0.5953229286997167
0008,6,1,37,2,2,1,1.61686330000521,Sequential,1.51408334083244,0.5953229286997167
0008,6,1,38,2,3,1,1.71662030002335,Sequential,1.51408334083244,0.5953229286997167
0008,6,1,39,2,1,1,1.55001380000613,Sequential,1.51408334083244,0.5953229286997167
0008,6,1,40,2,2,1,1.40051450001192,Sequential,1.51408334083244,0.5953229286997167
0008,6,1,41,3,3,1,1.3178083000239,Sequential,1.51408334083244,0.5953229286997167
0008,6,1,42,3,1,1,1.59963559999596,Sequential,1.51408334083244,0.5953229286997167
0008,6,1,43,3,2,1,1.41741110000294,Sequential,1.51408334083244,0.5953229286997167
0008,6,1,44,3,2,1,1.41724500001874,Sequential,1.51408334083244,0.5953229286997167
0008,6,1,45,3,1,1,1.55018580000615,Sequential,1.51408334083244,0.5953229286997167
0008,6,1,46,3,3,1,1.33362300001318,Sequential,1.51408334083244,0.5953229286997167
0008,6,1,47,3,3,1,1.30129909998504,Sequential,1.51408334083244,0.5953229286997167
0008,6,1,48,3,1,1,1.38388409998151,Sequential,1.51408334083244,0.5953229286997167
0008,6,1,49,3,2,1,1.55046519997995,Sequential,1.51408334083244,0.5953229286997167
0008,6,1,50,3,2,1,1.25011000002269,Sequential,1.51408334083244,0.5953229286997167
0008,6,1,51,3,1,1,1.28358990000561,Sequential,1.51408334083244,0.5953229286997167
0008,6,1,52,3,1,1,1.50060369999846,Sequential,1.51408334083244,0.5953229286997167
0008,6,1,53,3,2,1,1.23404119999032,Sequential,1.51408334083244,0.5953229286997167
0008,6,1,54,3,3,1,1.25059089998831,Sequential,1.51408334083244,0.5953229286997167
0008,6,1,56,3,2,1,1.40004509998835,Sequential,1.51408334083244,0.5953229286997167
0008,6,1,57,3,1,1,1.18342990000383,Sequential,1.51408334083244,0.5953229286997167
0008,6,1,58,3,2,1,1.18376509999507,Sequential,1.51408334083244,0.5953229286997167
0008,6,1,59,3,3,1,1.31725480000023,Sequential,1.51408334083244,0.5953229286997167
0008,6,1,60,3,3,1,1.40014919999521,Sequential,1.51408334083244,0.5953229286997167
0008,6,1,61,4,3,1,1.40056609999738,Sequential,1.51408334083244,0.5953229286997167
0008,6,1,62,4,1,1,1.68339590000687,Sequential,1.51408334083244,0.5953229286997167
0008,6,1,63,4,2,1,1.60018019998097,Sequential,1.51408334083244,0.5953229286997167
0008,6,1,64,4,2,1,1.20064479997382,Sequential,1.51408334083244,0.5953229286997167
0008,6,1,65,4,1,1,1.28527669998584,Sequential,1.51408334083244,0.5953229286997167
0008,6,1,66,4,2,1,1.21681039998657,Sequential,1.51408334083244,0.5953229286997167
0008,6,1,67,4,3,1,1.40045030001784,Sequential,1.51408334083244,0.5953229286997167
0008,6,1,68,4,1,1,1.4669251999876,Sequential,1.51408334083244,0.5953229286997167
0008,6,1,69,4,2,1,1.41743349999888,Sequential,1.51408334083244,0.5953229286997167
0008,6,1,70,4,1,1,1.68403219999163,Sequential,1.51408334083244,0.5953229286997167
0008,6,1,71,4,3,1,1.43414180001128,Sequential,1.51408334083244,0.5953229286997167
0008,6,1,72,4,2,1,1.283420199994,Sequential,1.51408334083244,0.5953229286997167
0008,6,1,73,4,1,1,1.33394300000509,Sequential,1.51408334083244,0.5953229286997167
0008,6,1,74,4,2,1,1.10030610000831,Sequential,1.51408334083244,0.5953229286997167
0008,6,1,75,4,3,1,1.36617719999049,Sequential,1.51408334083244,0.5953229286997167
0008,6,1,76,4,3,1,1.33344039999065,Sequential,1.51408334083244,0.5953229286997167
0008,6,1,77,4,1,1,1.28370220001671,Sequential,1.51408334083244,0.5953229286997167
0008,6,1,78,4,3,1,1.40157519999775,Sequential,1.51408334083244,0.5953229286997167
0008,6,1,79,4,3,1,1.35035600000992,Sequential,1.51408334083244,0.5953229286997167
0008,6,1,80,4,1,1,1.25032260001171,Sequential,1.51408334083244,0.5953229286997167
0008,6,1,81,5,2,1,1.700170600001,Sequential,1.51408334083244,0.5953229286997167
0008,6,1,82,5,3,1,1.61680710001383,Sequential,1.51408334083244,0.5953229286997167
0008,6,1,83,5,1,1,1.48350709999795,Sequential,1.51408334083244,0.5953229286997167
0008,6,1,84,5,1,1,1.50064230000135,Sequential,1.51408334083244,0.5953229286997167
0008,6,1,85,5,2,1,1.28370319999522,Sequential,1.51408334083244,0.5953229286997167
0008,6,1,86,5,3,1,1.30072519998066,Sequential,1.51408334083244,0.5953229286997167
0008,6,1,87,5,3,1,1.33347539999522,Sequential,1.51408334083244,0.5953229286997167
0008,6,1,88,5,2,1,1.15072299999883,Sequential,1.51408334083244,0.5953229286997167
0008,6,1,89,5,1,1,1.63370450001094,Sequential,1.51408334083244,0.5953229286997167
0008,6,1,90,5,3,1,1.20013389998348,Sequential,1.51408334083244,0.5953229286997167
0008,6,1,91,5,2,1,1.19978830000036,Sequential,1.51408334083244,0.5953229286997167
0008,6,1,92,5,3,1,1.41732300000149,Sequential,1.51408334083244,0.5953229286997167
0008,6,1,93,5,1,1,1.35000919998856,Sequential,1.51408334083244,0.5953229286997167
0008,6,1,94,5,2,1,1.23339599999599,Sequential,1.51408334083244,0.5953229286997167
0008,6,1,95,5,1,1,1.24995940001099,Sequential,1.51408334083244,0.5953229286997167
0008,6,1,96,5,3,1,1.28391070000362,Sequential,1.51408334083244,0.5953229286997167
0008,6,1,97,5,2,1,1.13430020000669,Sequential,1.51408334083244,0.5953229286997167
0008,6,1,98,5,3,1,1.61808839999139,Sequential,1.51408334083244,0.5953229286997167
0008,6,1,99,5,1,1,1.45215120000648,Sequential,1.51408334083244,0.5953229286997167
0008,6,1,100,5,2,1,1.1194854999776,Sequential,1.51408334083244,0.5953229286997167
0008,6,1,101,6,3,1,1.25064240000211,Sequential,1.51408334083244,0.5953229286997167
0008,6,1,102,6,1,1,1.15003700001398,Sequential,1.51408334083244,0.5953229286997167
0008,6,1,103,6,2,1,1.1999097999942,Sequential,1.51408334083244,0.5953229286997167
0008,6,1,104,6,2,1,1.06790860000183,Sequential,1.51408334083244,0.5953229286997167
0008,6,1,105,6,1,1,1.30014189999201,Sequential,1.51408334083244,0.5953229286997167
0008,6,1,106,6,3,1,1.24989820001065,Sequential,1.51408334083244,0.5953229286997167
0008,6,1,107,6,3,1,1.35095429999637,Sequential,1.51408334083244,0.5953229286997167
0008,6,1,108,6,1,1,1.16771860001609,Sequential,1.51408334083244,0.5953229286997167
0008,6,1,109,6,2,1,1.28286999999546,Sequential,1.51408334083244,0.5953229286997167
0008,6,1,110,6,2,1,1.18574179999996,Sequential,1.51408334083244,0.5953229286997167
0008,6,1,111,6,1,1,1.11683539999649,Sequential,1.51408334083244,0.5953229286997167
0008,6,1,112,6,1,1,1.25007519999053,Sequential,1.51408334083244,0.5953229286997167
0008,6,1,113,6,2,1,1.26777229999425,Sequential,1.51408334083244,0.5953229286997167
0008,6,1,114,6,3,1,1.30028149997815,Sequential,1.51408334083244,0.5953229286997167
0008,6,1,115,6,1,1,1.41683689999627,Sequential,1.51408334083244,0.5953229286997167
0008,6,1,116,6,2,1,1.16685159999179,Sequential,1.51408334083244,0.5953229286997167
0008,6,1,117,6,1,1,1.14960839998093,Sequential,1.51408334083244,0.5953229286997167
0008,6,1,118,6,2,1,1.25075149998884,Sequential,1.51408334083244,0.5953229286997167
0008,6,1,119,6,3,1,1.25040719998651,Sequential,1.51408334083244,0.5953229286997167
0008,6,1,120,6,3,1,1.40022369998042,Sequential,1.51408334083244,0.5953229286997167
0009,7,2,6,1,2,1,5.01719790004427,Non-sequential,2.1192419714281656,1.4869629397287898
0009,7,2,7,1,3,1,1.58329239999875,Non-sequential,2.1192419714281656,1.4869629397287898
0009,7,2,8,1,1,1,2.96698939998168,Non-sequential,2.1192419714281656,1.4869629397287898
0009,7,2,10,1,1,1,4.43384610000066,Non-sequential,2.1192419714281656,1.4869629397287898
0009,7,2,11,1,3,1,1.60072930000024,Non-sequential,2.1192419714281656,1.4869629397287898
0009,7,2,12,1,2,1,2.78360999998404,Non-sequential,2.1192419714281656,1.4869629397287898
0009,7,2,13,1,1,0,2.48347870004363,Non-sequential,2.1192419714281656,1.4869629397287898
0009,7,2,15,1,3,1,1.40028519998305,Non-sequential,2.1192419714281656,1.4869629397287898
0009,7,2,16,1,3,1,1.46665529999882,Non-sequential,2.1192419714281656,1.4869629397287898
0009,7,2,17,1,1,0,4.50014700001338,Non-sequential,2.1192419714281656,1.4869629397287898
0009,7,2,18,1,3,1,1.43376570002874,Non-sequential,2.1192419714281656,1.4869629397287898
0009,7,2,19,1,3,1,1.66703589999815,Non-sequential,2.1192419714281656,1.4869629397287898
0009,7,2,20,1,1,0,3.53358780004783,Non-sequential,2.1192419714281656,1.4869629397287898
0009,7,2,21,2,2,1,3.56676289997995,Non-sequential,2.1192419714281656,1.4869629397287898
0009,7,2,22,2,3,1,1.31724939995911,Non-sequential,2.1192419714281656,1.4869629397287898
0009,7,2,23,2,1,0,2.60047929995926,Non-sequential,2.1192419714281656,1.4869629397287898
0009,7,2,24,2,1,0,1.51711279997835,Non-sequential,2.1192419714281656,1.4869629397287898
0009,7,2,25,2,2,1,3.65269319998333,Non-sequential,2.1192419714281656,1.4869629397287898
0009,7,2,26,2,3,1,1.28327840002021,Non-sequential,2.1192419714281656,1.4869629397287898
0009,7,2,27,2,3,1,1.33382939995499,Non-sequential,2.1192419714281656,1.4869629397287898
0009,7,2,28,2,2,1,3.33385739999358,Non-sequential,2.1192419714281656,1.4869629397287898
0009,7,2,29,2,1,0,2.45064989995444,Non-sequential,2.1192419714281656,1.4869629397287898
0009,7,2,30,2,3,1,1.28362050000578,Non-sequential,2.1192419714281656,1.4869629397287898
0009,7,2,32,2,3,1,1.30071099998895,Non-sequential,2.1192419714281656,1.4869629397287898
0009,7,2,33,2,1,0,1.7337894999655,Non-sequential,2.1192419714281656,1.4869629397287898
0009,7,2,34,2,2,1,2.70039240003098,Non-sequential,2.1192419714281656,1.4869629397287898
0009,7,2,35,2,1,0,1.36730019998504,Non-sequential,2.1192419714281656,1.4869629397287898
0009,7,2,36,2,3,1,1.38370679999935,Non-sequential,2.1192419714281656,1.4869629397287898
0009,7,2,37,2,2,1,1.40051199996378,Non-sequential,2.1192419714281656,1.4869629397287898
0009,7,2,38,2,3,1,1.18405439995695,Non-sequential,2.1192419714281656,1.4869629397287898
0009,7,2,39,2,1,0,2.4001763999695,Non-sequential,2.1192419714281656,1.4869629397287898
0009,7,2,40,2,2,1,1.88354629999958,Non-sequential,2.1192419714281656,1.4869629397287898
0009,7,2,41,3,3,1,1.33365500002401,Non-sequential,2.1192419714281656,1.4869629397287898
0009,7,2,42,3,1,1,2.60034300002735,Non-sequential,2.1192419714281656,1.4869629397287898
0009,7,2,43,3,2,1,1.93532779999077,Non-sequential,2.1192419714281656,1.4869629397287898
0009,7,2,44,3,2,1,1.25043269997695,Non-sequential,2.1192419714281656,1.4869629397287898
0009,7,2,45,3,1,0,1.41708849999122,Non-sequential,2.1192419714281656,1.4869629397287898
0009,7,2,46,3,3,1,1.26695060002385,Non-sequential,2.1192419714281656,1.4869629397287898
0009,7,2,47,3,3,1,1.15066620003199,Non-sequential,2.1192419714281656,1.4869629397287898
0009,7,2,48,3,1,0,1.8337729999912,Non-sequential,2.1192419714281656,1.4869629397287898
0009,7,2,49,3,2,1,1.30028050002875,Non-sequential,2.1192419714281656,1.4869629397287898
0009,7,2,50,3,2,1,1.63397810002789,Non-sequential,2.1192419714281656,1.4869629397287898
0009,7,2,51,3,1,1,2.10206569998991,Non-sequential,2.1192419714281656,1.4869629397287898
0009,7,2,52,3,1,1,1.86710259999381,Non-sequential,2.1192419714281656,1.4869629397287898
0009,7,2,53,3,2,1,2.36749050003709,Non-sequential,2.1192419714281656,1.4869629397287898
0009,7,2,54,3,3,1,1.25039280002238,Non-sequential,2.1192419714281656,1.4869629397287898
0009,7,2,55,3,1,1,2.61681450001197,Non-sequential,2.1192419714281656,1.4869629397287898
0009,7,2,56,3,2,0,1.55184099997859,Non-sequential,2.1192419714281656,1.4869629397287898
0009,7,2,57,3,1,1,2.06768400000874,Non-sequential,2.1192419714281656,1.4869629397287898
0009,7,2,58,3,2,1,1.48374659998808,Non-sequential,2.1192419714281656,1.4869629397287898
0009,7,2,59,3,3,1,1.18361890001688,Non-sequential,2.1192419714281656,1.4869629397287898
0009,7,2,60,3,3,1,1.23299220000627,Non-sequential,2.1192419714281656,1.4869629397287898
0009,7,2,61,4,3,1,1.25065050000558,Non-sequential,2.1192419714281656,1.4869629397287898
0009,7,2,62,4,1,0,1.78517160000047,Non-sequential,2.1192419714281656,1.4869629397287898
0009,7,2,63,4,2,1,1.38373860000866,Non-sequential,2.1192419714281656,1.4869629397287898
0009,7,2,64,4,2,1,1.40023690002272,Non-sequential,2.1192419714281656,1.4869629397287898
0009,7,2,65,4,1,0,1.30034200003138,Non-sequential,2.1192419714281656,1.4869629397287898
0009,7,2,66,4,2,0,1.38372760004131,Non-sequential,2.1192419714281656,1.4869629397287898
0009,7,2,67,4,3,1,1.30014959996333,Non-sequential,2.1192419714281656,1.4869629397287898
0009,7,2,68,4,1,1,1.78333130001556,Non-sequential,2.1192419714281656,1.4869629397287898
0009,7,2,69,4,2,0,1.51709639996989,Non-sequential,2.1192419714281656,1.4869629397287898
0009,7,2,70,4,1,0,1.56673019996379,Non-sequential,2.1192419714281656,1.4869629397287898
0009,7,2,71,4,3,1,1.85068689996842,Non-sequential,2.1192419714281656,1.4869629397287898
0009,7,2,72,4,2,0,1.38365030003479,Non-sequential,2.1192419714281656,1.4869629397287898
0009,7,2,73,4,1,0,2.05041010002606,Non-sequential,2.1192419714281656,1.4869629397287898
0009,7,2,74,4,2,1,2.21723569999449,Non-sequential,2.1192419714281656,1.4869629397287898
0009,7,2,75,4,3,1,1.38310890004504,Non-sequential,2.1192419714281656,1.4869629397287898
0009,7,2,76,4,3,1,1.26713640004164,Non-sequential,2.1192419714281656,1.4869629397287898
0009,7,2,77,4,1,0,2.90019210003084,Non-sequential,2.1192419714281656,1.4869629397287898
0009,7,2,78,4,3,1,1.21678710001288,Non-sequential,2.1192419714281656,1.4869629397287898
0009,7,2,79,4,3,1,1.16674780001631,Non-sequential,2.1192419714281656,1.4869629397287898
0009,7,2,80,4,1,1,2.00025969999842,Non-sequential,2.1192419714281656,1.4869629397287898
0009,7,2,81,5,2,0,1.45030680001946,Non-sequential,2.1192419714281656,1.4869629397287898
0009,7,2,82,5,3,1,1.33388650004053,Non-sequential,2.1192419714281656,1.4869629397287898
0009,7,2,83,5,1,0,1.66710810002405,Non-sequential,2.1192419714281656,1.4869629397287898
0009,7,2,84,5,1,0,1.56741900002817,Non-sequential,2.1192419714281656,1.4869629397287898
0009,7,2,85,5,2,1,4.08335909998277,Non-sequential,2.1192419714281656,1.4869629397287898
0009,7,2,86,5,3,1,1.26679690001765,Non-sequential,2.1192419714281656,1.4869629397287898
0009,7,2,87,5,3,1,1.26608179998584,Non-sequential,2.1192419714281656,1.4869629397287898
0009,7,2,88,5,2,0,1.4009914000053,Non-sequential,2.1192419714281656,1.4869629397287898
0009,7,2,89,5,1,0,3.133405999979,Non-sequential,2.1192419714281656,1.4869629397287898
0009,7,2,90,5,3,1,1.35034429997904,Non-sequential,2.1192419714281656,1.4869629397287898
0009,7,2,91,5,2,1,1.78563130000839,Non-sequential,2.1192419714281656,1.4869629397287898
0009,7,2,92,5,3,1,1.16723720001755,Non-sequential,2.1192419714281656,1.4869629397287898
0009,7,2,93,5,1,1,1.38391169998795,Non-sequential,2.1192419714281656,1.4869629397287898
0009,7,2,94,5,2,1,1.30016179999802,Non-sequential,2.1192419714281656,1.4869629397287898
0009,7,2,95,5,1,0,1.24938029999612,Non-sequential,2.1192419714281656,1.4869629397287898
0009,7,2,96,5,3,1,1.20025589998113,Non-sequential,2.1192419714281656,1.4869629397287898
0009,7,2,97,5,2,1,1.55000190000283,Non-sequential,2.1192419714281656,1.4869629397287898
0009,7,2,98,5,3,1,2.49995179998223,Non-sequential,2.1192419714281656,1.4869629397287898
0009,7,2,99,5,1,1,1.61708080000244,Non-sequential,2.1192419714281656,1.4869629397287898
0009,7,2,100,5,2,1,1.85187750001205,Non-sequential,2.1192419714281656,1.4869629397287898
0009,7,2,101,6,3,1,1.24981350003509,Non-sequential,2.1192419714281656,1.4869629397287898
0009,7,2,102,6,1,1,1.99976550001884,Non-sequential,2.1192419714281656,1.4869629397287898
0009,7,2,103,6,2,1,2.68542289995821,Non-sequential,2.1192419714281656,1.4869629397287898
0009,7,2,104,6,2,1,2.03379670000868,Non-sequential,2.1192419714281656,1.4869629397287898
0009,7,2,105,6,1,1,1.45030729996506,Non-sequential,2.1192419714281656,1.4869629397287898
0009,7,2,106,6,3,1,1.20049819996348,Non-sequential,2.1192419714281656,1.4869629397287898
0009,7,2,107,6,3,1,1.18400790001033,Non-sequential,2.1192419714281656,1.4869629397287898
0009,7,2,108,6,1,0,1.65181690000463,Non-sequential,2.1192419714281656,1.4869629397287898
0009,7,2,109,6,2,1,1.36723159998655,Non-sequential,2.1192419714281656,1.4869629397287898
0009,7,2,110,6,2,1,2.36690459999954,Non-sequential,2.1192419714281656,1.4869629397287898
0009,7,2,111,6,1,0,1.4339512999868,Non-sequential,2.1192419714281656,1.4869629397287898
0009,7,2,112,6,1,0,1.3521612000186,Non-sequential,2.1192419714281656,1.4869629397287898
0009,7,2,113,6,2,1,1.30029649997596,Non-sequential,2.1192419714281656,1.4869629397287898
0009,7,2,114,6,3,1,1.13405539997621,Non-sequential,2.1192419714281656,1.4869629397287898
0009,7,2,115,6,1,1,1.61662899999646,Non-sequential,2.1192419714281656,1.4869629397287898
0009,7,2,116,6,2,1,1.23329330002889,Non-sequential,2.1192419714281656,1.4869629397287898
0009,7,2,117,6,1,1,1.50069320003968,Non-sequential,2.1192419714281656,1.4869629397287898
0009,7,2,118,6,2,1,1.21652139996877,Non-sequential,2.1192419714281656,1.4869629397287898
0009,7,2,119,6,3,1,1.16738419997273,Non-sequential,2.1192419714281656,1.4869629397287898
0009,7,2,120,6,3,1,1.31717310001841,Non-sequential,2.1192419714281656,1.4869629397287898
0010,1,2,4,1,2,0,4.76672359998338,Non-sequential,2.014625626087755,1.592490039341165
0010,1,2,6,1,2,0,4.88361199997598,Non-sequential,2.014625626087755,1.592490039341165
0010,1,2,9,1,2,1,2.30029490002198,Non-sequential,2.014625626087755,1.592490039341165
0010,1,2,10,1,1,1,3.03350620000856,Non-sequential,2.014625626087755,1.592490039341165
0010,1,2,12,1,2,1,3.51630949997343,Non-sequential,2.014625626087755,1.592490039341165
0010,1,2,13,1,1,1,4.90039590001106,Non-sequential,2.014625626087755,1.592490039341165
0010,1,2,14,1,2,0,3.90033960004803,Non-sequential,2.014625626087755,1.592490039341165
0010,1,2,15,1,3,1,4.01670769997872,Non-sequential,2.014625626087755,1.592490039341165
0010,1,2,16,1,3,1,1.70056760002626,Non-sequential,2.014625626087755,1.592490039341165
0010,1,2,17,1,1,1,3.0841065000277,Non-sequential,2.014625626087755,1.592490039341165
0010,1,2,18,1,3,1,2.30057239998132,Non-sequential,2.014625626087755,1.592490039341165
0010,1,2,19,1,3,1,1.26701120001962,Non-sequential,2.014625626087755,1.592490039341165
0010,1,2,20,1,1,0,1.5500060999766,Non-sequential,2.014625626087755,1.592490039341165
0010,1,2,21,2,2,1,1.76658460003091,Non-sequential,2.014625626087755,1.592490039341165
0010,1,2,22,2,3,1,1.06845969997812,Non-sequential,2.014625626087755,1.592490039341165
0010,1,2,23,2,1,0,1.48376530001406,Non-sequential,2.014625626087755,1.592490039341165
0010,1,2,24,2,1,0,4.45021959999576,Non-sequential,2.014625626087755,1.592490039341165
0010,1,2,25,2,2,0,2.1005218999926,Non-sequential,2.014625626087755,1.592490039341165
0010,1,2,26,2,3,1,1.95023830002174,Non-sequential,2.014625626087755,1.592490039341165
0010,1,2,27,2,3,1,1.31735800002934,Non-sequential,2.014625626087755,1.592490039341165
0010,1,2,28,2,2,1,2.26699560001725,Non-sequential,2.014625626087755,1.592490039341165
0010,1,2,29,2,1,0,1.0506687000161,Non-sequential,2.014625626087755,1.592490039341165
0010,1,2,30,2,3,1,1.8687471000012,Non-sequential,2.014625626087755,1.592490039341165
0010,1,2,31,2,2,0,4.20032129995525,Non-sequential,2.014625626087755,1.592490039341165
0010,1,2,33,2,1,1,2.7338423000183,Non-sequential,2.014625626087755,1.592490039341165
0010,1,2,34,2,2,1,1.5843885000213,Non-sequential,2.014625626087755,1.592490039341165
0010,1,2,35,2,1,0,1.5004675000091099,Non-sequential,2.014625626087755,1.592490039341165
0010,1,2,36,2,3,1,1.4335375999799,Non-sequential,2.014625626087755,1.592490039341165
0010,1,2,37,2,2,0,2.40055409999331,Non-sequential,2.014625626087755,1.592490039341165
0010,1,2,38,2,3,1,1.53453210002044,Non-sequential,2.014625626087755,1.592490039341165
0010,1,2,40,2,2,0,4.93381820002105,Non-sequential,2.014625626087755,1.592490039341165
0010,1,2,41,3,3,1,1.76701260003028,Non-sequential,2.014625626087755,1.592490039341165
0010,1,2,43,3,2,0,1.36685009999201,Non-sequential,2.014625626087755,1.592490039341165
0010,1,2,44,3,2,1,1.50055100000463,Non-sequential,2.014625626087755,1.592490039341165
0010,1,2,45,3,1,0,1.40020840003854,Non-sequential,2.014625626087755,1.592490039341165
0010,1,2,46,3,3,1,1.25018110004021,Non-sequential,2.014625626087755,1.592490039341165
0010,1,2,47,3,3,1,1.15030169999227,Non-sequential,2.014625626087755,1.592490039341165
0010,1,2,48,3,1,1,1.66706819995306,Non-sequential,2.014625626087755,1.592490039341165
0010,1,2,49,3,2,1,1.38378510001348,Non-sequential,2.014625626087755,1.592490039341165
0010,1,2,50,3,2,0,1.30022970004939,Non-sequential,2.014625626087755,1.592490039341165
0010,1,2,51,3,1,0,1.16701779997675,Non-sequential,2.014625626087755,1.592490039341165
0010,1,2,52,3,1,1,1.06695559999207,Non-sequential,2.014625626087755,1.592490039341165
0010,1,2,53,3,2,0,1.45011589996284,Non-sequential,2.014625626087755,1.592490039341165
0010,1,2,54,3,3,1,1.10052619996713,Non-sequential,2.014625626087755,1.592490039341165
0010,1,2,55,3,1,0,1.25039950001519,Non-sequential,2.014625626087755,1.592490039341165
0010,1,2,56,3,2,1,1.08377590001328,Non-sequential,2.014625626087755,1.592490039341165
0010,1,2,57,3,1,1,0.900451499968767,Non-sequential,2.014625626087755,1.592490039341165
0010,1,2,58,3,2,0,1.11702659999719,Non-sequential,2.014625626087755,1.592490039341165
0010,1,2,59,3,3,1,1.03370530001121,Non-sequential,2.014625626087755,1.592490039341165
0010,1,2,60,3,3,1,1.08380649995524,Non-sequential,2.014625626087755,1.592490039341165
0010,1,2,61,4,3,1,1.15043189999415,Non-sequential,2.014625626087755,1.592490039341165
0010,1,2,62,4,1,0,1.21677499997895,Non-sequential,2.014625626087755,1.592490039341165
0010,1,2,63,4,2,1,1.20044789998792,Non-sequential,2.014625626087755,1.592490039341165
0010,1,2,64,4,2,0,1.38358419999713,Non-sequential,2.014625626087755,1.592490039341165
0010,1,2,65,4,1,1,1.20022170001175,Non-sequential,2.014625626087755,1.592490039341165
0010,1,2,66,4,2,1,1.11678300000494,Non-sequential,2.014625626087755,1.592490039341165
0010,1,2,67,4,3,1,1.46921980002662,Non-sequential,2.014625626087755,1.592490039341165
0010,1,2,68,4,1,0,1.25042940001003,Non-sequential,2.014625626087755,1.592490039341165
0010,1,2,69,4,2,1,1.11705000000075,Non-sequential,2.014625626087755,1.592490039341165
0010,1,2,70,4,1,1,1.06694490002701,Non-sequential,2.014625626087755,1.592490039341165
0010,1,2,71,4,3,1,1.06693189998623,Non-sequential,2.014625626087755,1.592490039341165
0010,1,2,72,4,2,1,1.48364759999095,Non-sequential,2.014625626087755,1.592490039341165
0010,1,2,73,4,1,0,1.4337054999778,Non-sequential,2.014625626087755,1.592490039341165
0010,1,2,74,4,2,0,1.18241529999068,Non-sequential,2.014625626087755,1.592490039341165
0010,1,2,75,4,3,1,1.11742889997549,Non-sequential,2.014625626087755,1.592490039341165
0010,1,2,76,4,3,1,1.1502288999618,Non-sequential,2.014625626087755,1.592490039341165
0010,1,2,77,4,1,1,1.81909350003116,Non-sequential,2.014625626087755,1.592490039341165
0010,1,2,78,4,3,1,1.71707119996427,Non-sequential,2.014625626087755,1.592490039341165
0010,1,2,79,4,3,1,1.16701679996913,Non-sequential,2.014625626087755,1.592490039341165
0010,1,2,80,4,1,1,1.21703060000436,Non-sequential,2.014625626087755,1.592490039341165
0010,1,2,81,5,2,1,1.20038850000128,Non-sequential,2.014625626087755,1.592490039341165
0010,1,2,82,5,3,1,1.10028499999316,Non-sequential,2.014625626087755,1.592490039341165
0010,1,2,83,5,1,0,1.10073569999076,Non-sequential,2.014625626087755,1.592490039341165
0010,1,2,84,5,1,1,3.05035770003451,Non-sequential,2.014625626087755,1.592490039341165
0010,1,2,85,5,2,0,1.14989100000821,Non-sequential,2.014625626087755,1.592490039341165
0010,1,2,86,5,3,1,1.15021409996552,Non-sequential,2.014625626087755,1.592490039341165
0010,1,2,87,5,3,1,1.10007890005363,Non-sequential,2.014625626087755,1.592490039341165
0010,1,2,88,5,2,1,1.0335779999732,Non-sequential,2.014625626087755,1.592490039341165
0010,1,2,89,5,1,0,1.05038170004264,Non-sequential,2.014625626087755,1.592490039341165
0010,1,2,90,5,3,1,1.18336589995306,Non-sequential,2.014625626087755,1.592490039341165
0010,1,2,91,5,2,0,2.91699469997548,Non-sequential,2.014625626087755,1.592490039341165
0010,1,2,92,5,3,1,1.8835949000204,Non-sequential,2.014625626087755,1.592490039341165
0010,1,2,93,5,1,1,1.46684820001246,Non-sequential,2.014625626087755,1.592490039341165
0010,1,2,94,5,2,1,1.35027290001744,Non-sequential,2.014625626087755,1.592490039341165
0010,1,2,95,5,1,0,1.03377360000741,Non-sequential,2.014625626087755,1.592490039341165
0010,1,2,96,5,3,1,1.11707939999178,Non-sequential,2.014625626087755,1.592490039341165
0010,1,2,97,5,2,0,1.05022019997705,Non-sequential,2.014625626087755,1.592490039341165
0010,1,2,98,5,3,1,1.085033499985,Non-sequential,2.014625626087755,1.592490039341165
0010,1,2,99,5,1,0,1.43371680000564,Non-sequential,2.014625626087755,1.592490039341165
0010,1,2,100,5,2,0,1.78371390001848,Non-sequential,2.014625626087755,1.592490039341165
0010,1,2,101,6,3,1,1.10021539998706,Non-sequential,2.014625626087755,1.592490039341165
0010,1,2,102,6,1,1,1.18363270000555,Non-sequential,2.014625626087755,1.592490039341165
0010,1,2,103,6,2,0,1.116979500046,Non-sequential,2.014625626087755,1.592490039341165
0010,1,2,104,6,2,1,1.20004599995445,Non-sequential,2.014625626087755,1.592490039341165
0010,1,2,105,6,1,0,1.134639099997,Non-sequential,2.014625626087755,1.592490039341165
0010,1,2,106,6,3,1,1.08393590000924,Non-sequential,2.014625626087755,1.592490039341165
0010,1,2,107,6,3,1,0.966843300033361,Non-sequential,2.014625626087755,1.592490039341165
0010,1,2,108,6,1,1,1.06642109999666,Non-sequential,2.014625626087755,1.592490039341165
0010,1,2,111,6,1,0,2.31736960000126,Non-sequential,2.014625626087755,1.592490039341165
0010,1,2,112,6,1,1,1.35038060002262,Non-sequential,2.014625626087755,1.592490039341165
0010,1,2,113,6,2,0,1.71717680001166,Non-sequential,2.014625626087755,1.592490039341165
0010,1,2,114,6,3,1,1.00021570001263,Non-sequential,2.014625626087755,1.592490039341165
0010,1,2,115,6,1,0,1.18367040000157,Non-sequential,2.014625626087755,1.592490039341165
0010,1,2,116,6,2,1,1.10078700003214,Non-sequential,2.014625626087755,1.592490039341165
0010,1,2,117,6,1,1,1.13398609997239,Non-sequential,2.014625626087755,1.592490039341165
0010,1,2,118,6,2,0,4.00010829995153,Non-sequential,2.014625626087755,1.592490039341165
0010,1,2,119,6,3,1,1.13362529996084,Non-sequential,2.014625626087755,1.592490039341165
0010,1,2,120,6,3,1,1.08474479999859,Non-sequential,2.014625626087755,1.592490039341165
0011,2,2,1,1,3,1,2.15053909999551,Non-sequential,2.1615837400007876,1.461113421727361
0011,2,2,2,1,1,1,3.53333730000304,Non-sequential,2.1615837400007876,1.461113421727361
0011,2,2,3,1,2,1,3.08364580001216,Non-sequential,2.1615837400007876,1.461113421727361
0011,2,2,4,1,2,0,1.06684660003521,Non-sequential,2.1615837400007876,1.461113421727361
0011,2,2,6,1,2,1,1.90024550003,Non-sequential,2.1615837400007876,1.461113421727361
0011,2,2,7,1,3,0,1.18399770004908,Non-sequential,2.1615837400007876,1.461113421727361
0011,2,2,8,1,1,1,4.28376129997196,Non-sequential,2.1615837400007876,1.461113421727361
0011,2,2,9,1,2,1,1.96652010001708,Non-sequential,2.1615837400007876,1.461113421727361
0011,2,2,10,1,1,0,4.66698829998495,Non-sequential,2.1615837400007876,1.461113421727361
0011,2,2,11,1,3,0,1.33346519997576,Non-sequential,2.1615837400007876,1.461113421727361
0011,2,2,12,1,2,1,1.10058819997357,Non-sequential,2.1615837400007876,1.461113421727361
0011,2,2,15,1,3,1,1.90031050000107,Non-sequential,2.1615837400007876,1.461113421727361
0011,2,2,17,1,1,0,2.85118880000664,Non-sequential,2.1615837400007876,1.461113421727361
0011,2,2,18,1,3,1,3.38390469999285,Non-sequential,2.1615837400007876,1.461113421727361
0011,2,2,19,1,3,1,1.91690449998714,Non-sequential,2.1615837400007876,1.461113421727361
0011,2,2,20,1,1,0,1.41721849999158,Non-sequential,2.1615837400007876,1.461113421727361
0011,2,2,21,2,2,1,1.60016750002978,Non-sequential,2.1615837400007876,1.461113421727361
0011,2,2,22,2,3,1,2.1500993000227,Non-sequential,2.1615837400007876,1.461113421727361
0011,2,2,23,2,1,0,3.43553509999765,Non-sequential,2.1615837400007876,1.461113421727361
0011,2,2,24,2,1,0,4.30011630000081,Non-sequential,2.1615837400007876,1.461113421727361
0011,2,2,25,2,2,1,2.18361880001612,Non-sequential,2.1615837400007876,1.461113421727361
0011,2,2,26,2,3,1,1.51766569999745,Non-sequential,2.1615837400007876,1.461113421727361
0011,2,2,27,2,3,1,1.45056080003269,Non-sequential,2.1615837400007876,1.461113421727361
0011,2,2,28,2,2,1,1.4837582000182,Non-sequential,2.1615837400007876,1.461113421727361
0011,2,2,30,2,3,1,1.3002593999845,Non-sequential,2.1615837400007876,1.461113421727361
0011,2,2,31,2,2,1,2.10091949999332,Non-sequential,2.1615837400007876,1.461113421727361
0011,2,2,32,2,3,1,1.26676820003195,Non-sequential,2.1615837400007876,1.461113421727361
0011,2,2,33,2,1,0,1.60060440003872,Non-sequential,2.1615837400007876,1.461113421727361
0011,2,2,34,2,2,1,1.4001231000293,Non-sequential,2.1615837400007876,1.461113421727361
0011,2,2,35,2,1,0,3.76677190000191,Non-sequential,2.1615837400007876,1.461113421727361
0011,2,2,36,2,3,1,1.2501572999754,Non-sequential,2.1615837400007876,1.461113421727361
0011,2,2,37,2,2,1,2.29980030003935,Non-sequential,2.1615837400007876,1.461113421727361
0011,2,2,38,2,3,1,1.43369060003897,Non-sequential,2.1615837400007876,1.461113421727361
0011,2,2,39,2,1,0,2.06678150000516,Non-sequential,2.1615837400007876,1.461113421727361
0011,2,2,40,2,2,1,1.93406510003842,Non-sequential,2.1615837400007876,1.461113421727361
0011,2,2,41,3,3,1,3.05051789997378,Non-sequential,2.1615837400007876,1.461113421727361
