participant,photo_set,group,trial,block,accuracy,RT,learn_half,groupname,meanrt,stdev
0001,2,1,1,1,0,5.97242589993402,1,Sequential,4.55221942497883,0.943144353983975
0001,2,1,2,1,0,4.47606060001999,1,Sequential,4.55221942497883,0.943144353983975
0001,2,1,3,1,1,4.51943310000934,1,Sequential,4.55221942497883,0.943144353983975
0001,2,1,4,1,1,3.99723449989688,1,Sequential,4.55221942497883,0.943144353983975
0001,2,1,5,1,1,5.36293179995846,1,Sequential,4.55221942497883,0.943144353983975
0001,2,1,6,2,0,6.27343649999239,1,Sequential,4.55221942497883,0.943144353983975
0001,2,1,7,2,1,3.61298850004096,1,Sequential,4.55221942497883,0.943144353983975
0001,2,1,8,2,1,4.15602719993331,1,Sequential,4.55221942497883,0.943144353983975
0001,2,1,9,2,1,3.57444090000354,1,Sequential,4.55221942497883,0.943144353983975
0001,2,1,10,2,0,5.947355399956,1,Sequential,4.55221942497883,0.943144353983975
0001,2,1,11,3,1,3.45117770007346,1,Sequential,4.55221942497883,0.943144353983975
0001,2,1,12,3,1,6.39848689991049,1,Sequential,4.55221942497883,0.943144353983975
0001,2,1,13,3,0,4.55120810004883,1,Sequential,4.55221942497883,0.943144353983975
0001,2,1,14,3,1,4.18651289993431,1,Sequential,4.55221942497883,0.943144353983975
0001,2,1,15,4,1,3.65483100002166,2,Sequential,4.55221942497883,0.943144353983975
0001,2,1,16,4,1,3.90455340000335,2,Sequential,4.55221942497883,0.943144353983975
0001,2,1,17,4,1,3.7070684999926,2,Sequential,4.55221942497883,0.943144353983975
0001,2,1,18,4,0,5.90800689999014,2,Sequential,4.55221942497883,0.943144353983975
0001,2,1,19,4,0,4.79722309997305,2,Sequential,4.55221942497883,0.943144353983975
0001,2,1,20,5,0,3.48155529994983,2,Sequential,4.55221942497883,0.943144353983975
0001,2,1,21,5,1,3.61847569991369,2,Sequential,4.55221942497883,0.943144353983975
0001,2,1,22,5,1,4.75269540003501,2,Sequential,4.55221942497883,0.943144353983975
0001,2,1,23,5,1,3.47543079999741,2,Sequential,4.55221942497883,0.943144353983975
0001,2,1,34,5,0,5.9278750999365,2,Sequential,4.55221942497883,0.943144353983975
0001,2,1,25,6,1,4.03724949993193,2,Sequential,4.55221942497883,0.943144353983975
0001,2,1,26,6,0,5.08992339996621,2,Sequential,4.55221942497883,0.943144353983975
0001,2,1,27,6,0,4.62859470001422,2,Sequential,4.55221942497883,0.943144353983975
0001,2,1,28,6,0,3.99894109996967,2,Sequential,4.55221942497883,0.943144353983975
0002,3,1,3,1,0,4.04856330004986,1,Sequential,5.219799544442342,1.4966009790614072
0002,3,1,4,1,1,5.52001850004308,1,Sequential,5.219799544442342,1.4966009790614072
0002,3,1,5,1,1,5.72254049999174,1,Sequential,5.219799544442342,1.4966009790614072
0002,3,1,7,2,1,5.47129940008745,1,Sequential,5.219799544442342,1.4966009790614072
0002,3,1,8,2,1,3.87483060010709,1,Sequential,5.219799544442342,1.4966009790614072
0002,3,1,9,2,1,5.06748289999086,1,Sequential,5.219799544442342,1.4966009790614072
0002,3,1,10,2,0,5.88158409995958,1,Sequential,5.219799544442342,1.4966009790614072
0002,3,1,11,3,1,4.91898069996387,1,Sequential,5.219799544442342,1.4966009790614072
0002,3,1,13,3,0,4.81365239992738,1,Sequential,5.219799544442342,1.4966009790614072
0002,3,1,14,3,1,5.54749900009483,1,Sequential,5.219799544442342,1.4966009790614072
0002,3,1,15,4,1,3.94267799996305,2,Sequential,5.219799544442342,1.4966009790614072
0002,3,1,16,4,0,5.80214659997728,2,Sequential,5.219799544442342,1.4966009790614072
0002,3,1,17,4,1,3.41352429997642,2,Sequential,5.219799544442342,1.4966009790614072
0002,3,1,18,4,1,4.82284120004624,2,Sequential,5.219799544442342,1.4966009790614072
0002,3,1,19,4,1,5.81622209993657,2,Sequential,5.219799544442342,1.4966009790614072
0002,3,1,20,5,1,6.8494733000407,2,Sequential,5.219799544442342,1.4966009790614072
0002,3,1,21,5,1,3.81117770005949,2,Sequential,5.219799544442342,1.4966009790614072
0002,3,1,22,5,1,3.63185269990936,2,Sequential,5.219799544442342,1.4966009790614072
0002,3,1,23,5,1,3.43003639997914,2,Sequential,5.219799544442342,1.4966009790614072
0002,3,1,34,5,1,3.78819709992968,2,Sequential,5.219799544442342,1.4966009790614072
0002,3,1,25,6,1,4.84276109992061,2,Sequential,5.219799544442342,1.4966009790614072
0002,3,1,26,6,0,3.84249480010476,2,Sequential,5.219799544442342,1.4966009790614072
0002,3,1,27,6,1,4.87832309992518,2,Sequential,5.219799544442342,1.4966009790614072
0002,3,1,28,6,0,5.38201679999474,2,Sequential,5.219799544442342,1.4966009790614072
0003,5,1,1,1,0,7.65807020000648,1,Sequential,5.390703314287488,1.47608192321719
0003,5,1,2,1,0,7.54496389999986,1,Sequential,5.390703314287488,1.47608192321719
0003,5,1,3,1,1,5.27044970006682,1,Sequential,5.390703314287488,1.47608192321719
0003,5,1,5,1,1,3.97713090002071,1,Sequential,5.390703314287488,1.47608192321719
0003,5,1,6,2,0,6.54963489994407,1,Sequential,5.390703314287488,1.47608192321719
0003,5,1,7,2,1,4.53840520000085,1,Sequential,5.390703314287488,1.47608192321719
0003,5,1,8,2,1,4.53079759993125,1,Sequential,5.390703314287488,1.47608192321719
0003,5,1,9,2,1,6.1575985000236,1,Sequential,5.390703314287488,1.47608192321719
0003,5,1,10,2,1,4.49325599998701,1,Sequential,5.390703314287488,1.47608192321719
0003,5,1,11,3,1,3.38358989998233,1,Sequential,5.390703314287488,1.47608192321719
0003,5,1,12,3,0,7.8242815999547,1,Sequential,5.390703314287488,1.47608192321719
0003,5,1,13,3,1,4.0819024000084,1,Sequential,5.390703314287488,1.47608192321719
0003,5,1,14,3,1,4.64998459990602,1,Sequential,5.390703314287488,1.47608192321719
0003,5,1,15,4,1,6.54605650005396,2,Sequential,5.390703314287488,1.47608192321719
0003,5,1,16,4,1,3.80049850000069,2,Sequential,5.390703314287488,1.47608192321719
0003,5,1,17,4,1,3.76704919990152,2,Sequential,5.390703314287488,1.47608192321719
0003,5,1,18,4,0,6.46627640002407,2,Sequential,5.390703314287488,1.47608192321719
0003,5,1,19,4,1,6.27341130003333,2,Sequential,5.390703314287488,1.47608192321719
0003,5,1,20,5,1,4.14503680006601,2,Sequential,5.390703314287488,1.47608192321719
0003,5,1,21,5,1,5.48432130005676,2,Sequential,5.390703314287488,1.47608192321719
0003,5,1,22,5,1,5.60178979998454,2,Sequential,5.390703314287488,1.47608192321719
0003,5,1,23,5,1,5.47688890004065,2,Sequential,5.390703314287488,1.47608192321719
0003,5,1,34,5,1,3.95781930000521,2,Sequential,5.390703314287488,1.47608192321719
0003,5,1,25,6,1,5.52416689996608,2,Sequential,5.390703314287488,1.47608192321719
0003,5,1,26,6,1,5.67613469995558,2,Sequential,5.390703314287488,1.47608192321719
0003,5,1,27,6,1,4.00343600008637,2,Sequential,5.390703314287488,1.47608192321719
0003,5,1,28,6,1,4.15810340002645,2,Sequential,5.390703314287488,1.47608192321719
0004,3,2,1,1,1,6.21381390000005,1,Non-sequential,5.366143053571423,1.4852542901852237
0004,3,2,3,1,1,5.36255549999998,1,Non-sequential,5.366143053571423,1.4852542901852237
0004,3,2,4,1,1,7.09701530000001,1,Non-sequential,5.366143053571423,1.4852542901852237
0004,3,2,5,1,1,3.88653670000002,1,Non-sequential,5.366143053571423,1.4852542901852237
0004,3,2,6,2,1,6.13256909999996,1,Non-sequential,5.366143053571423,1.4852542901852237
0004,3,2,7,2,1,7.47480330000002,1,Non-sequential,5.366143053571423,1.4852542901852237
0004,3,2,8,2,1,5.71545930000002,1,Non-sequential,5.366143053571423,1.4852542901852237
0004,3,2,9,2,0,3.91091689999996,1,Non-sequential,5.366143053571423,1.4852542901852237
0004,3,2,10,2,0,5.3110825,1,Non-sequential,5.366143053571423,1.4852542901852237
0004,3,2,11,3,1,5.78886569999997,1,Non-sequential,5.366143053571423,1.4852542901852237
0004,3,2,12,3,1,5.33658289999994,1,Non-sequential,5.366143053571423,1.4852542901852237
0004,3,2,13,3,1,4.18385720000003,1,Non-sequential,5.366143053571423,1.4852542901852237
0004,3,2,14,3,0,5.52457979999997,1,Non-sequential,5.366143053571423,1.4852542901852237
0004,3,2,15,4,0,4.77878880000003,2,Non-sequential,5.366143053571423,1.4852542901852237
0004,3,2,16,4,1,3.64571020000005,2,Non-sequential,5.366143053571423,1.4852542901852237
0004,3,2,17,4,1,3.74095,2,Non-sequential,5.366143053571423,1.4852542901852237
0004,3,2,18,4,0,6.6194524,2,Non-sequential,5.366143053571423,1.4852542901852237
0004,3,2,19,4,0,5.77165339999999,2,Non-sequential,5.366143053571423,1.4852542901852237
0004,3,2,20,5,1,4.97410109999998,2,Non-sequential,5.366143053571423,1.4852542901852237
0004,3,2,21,5,1,5.68062470000007,2,Non-sequential,5.366143053571423,1.4852542901852237
0004,3,2,171,5,1,3.49745580000013,2,Non-sequential,5.366143053571423,1.4852542901852237
0004,3,2,23,5,0,4.27439639999989,2,Non-sequential,5.366143053571423,1.4852542901852237
0004,3,2,180,5,1,4.56848560000003,2,Non-sequential,5.366143053571423,1.4852542901852237
0004,3,2,189,6,1,8.00927200000001,2,Non-sequential,5.366143053571423,1.4852542901852237
0004,3,2,192,6,1,4.66249299999981,2,Non-sequential,5.366143053571423,1.4852542901852237
0004,3,2,27,6,1,4.52683389999993,2,Non-sequential,5.366143053571423,1.4852542901852237
0004,3,2,28,6,1,3.58509359999994,2,Non-sequential,5.366143053571423,1.4852542901852237
0005,4,2,1,1,0,6.18662649998441,1,Non-sequential,5.492531865212621,1.3924740989485105
0005,4,2,5,1,1,4.0138297000085,1,Non-sequential,5.492531865212621,1.3924740989485105
0005,4,2,6,2,0,4.29216309997719,1,Non-sequential,5.492531865212621,1.3924740989485105
0005,4,2,7,2,1,5.25602540001273,1,Non-sequential,5.492531865212621,1.3924740989485105
0005,4,2,8,2,1,6.09486270003254,1,Non-sequential,5.492531865212621,1.3924740989485105
0005,4,2,9,2,0,4.43673020001734,1,Non-sequential,5.492531865212621,1.3924740989485105
0005,4,2,10,2,1,4.02434699999867,1,Non-sequential,5.492531865212621,1.3924740989485105
0005,4,2,11,3,0,6.3649873000104,1,Non-sequential,5.492531865212621,1.3924740989485105
0005,4,2,12,3,1,4.62276840000413,1,Non-sequential,5.492531865212621,1.3924740989485105
0005,4,2,14,3,0,4.21491689997492,1,Non-sequential,5.492531865212621,1.3924740989485105
0005,4,2,15,4,0,5.28800480003702,2,Non-sequential,5.492531865212621,1.3924740989485105
0005,4,2,16,4,1,4.58954580000136,2,Non-sequential,5.492531865212621,1.3924740989485105
0005,4,2,17,4,1,6.42141479998827,2,Non-sequential,5.492531865212621,1.3924740989485105
0005,4,2,18,4,1,6.02498889999697,2,Non-sequential,5.492531865212621,1.3924740989485105
0005,4,2,19,4,1,4.82905369997025,2,Non-sequential,5.492531865212621,1.3924740989485105
0005,4,2,20,5,1,6.93081130000064,2,Non-sequential,5.492531865212621,1.3924740989485105
0005,4,2,171,5,1,4.46080830000574,2,Non-sequential,5.492531865212621,1.3924740989485105
0005,4,2,23,5,0,5.74172309995629,2,Non-sequential,5.492531865212621,1.3924740989485105
0005,4,2,180,5,1,5.56431009998778,2,Non-sequential,5.492531865212621,1.3924740989485105
0005,4,2,189,6,1,7.95142549998127,2,Non-sequential,5.492531865212621,1.3924740989485105
0005,4,2,27,6,1,4.81942149996758,2,Non-sequential,5.492531865212621,1.3924740989485105
0005,4,2,28,6,1,4.32760419999249,2,Non-sequential,5.492531865212621,1.3924740989485105
0006,5,2,3,1,0,6.36792370001785,1,Non-sequential,5.5717544105320584,1.6443391302264696
0006,5,2,4,1,0,8.34477889997652,1,Non-sequential,5.5717544105320584,1.6443391302264696
0006,5,2,5,1,1,5.31037090002792,1,Non-sequential,5.5717544105320584,1.6443391302264696
0006,5,2,6,2,0,5.12788980000187,1,Non-sequential,5.5717544105320584,1.6443391302264696
0006,5,2,8,2,1,4.16401390003739,1,Non-sequential,5.5717544105320584,1.6443391302264696
0006,5,2,9,2,0,3.67630629998166,1,Non-sequential,5.5717544105320584,1.6443391302264696
0006,5,2,12,3,1,5.34468169999309,1,Non-sequential,5.5717544105320584,1.6443391302264696
0006,5,2,13,3,1,4.24330810003448,1,Non-sequential,5.5717544105320584,1.6443391302264696
0006,5,2,14,3,0,5.19108730001608,1,Non-sequential,5.5717544105320584,1.6443391302264696
0006,5,2,15,4,0,7.4336653999635,2,Non-sequential,5.5717544105320584,1.6443391302264696
0006,5,2,16,4,1,6.36312190000899,2,Non-sequential,5.5717544105320584,1.6443391302264696
0006,5,2,17,4,1,6.95681320002768,2,Non-sequential,5.5717544105320584,1.6443391302264696
0006,5,2,18,4,0,4.46547819999978,2,Non-sequential,5.5717544105320584,1.6443391302264696
0006,5,2,19,4,1,4.13261500000954,2,Non-sequential,5.5717544105320584,1.6443391302264696
0006,5,2,171,5,1,3.35592060000636,2,Non-sequential,5.5717544105320584,1.6443391302264696
0006,5,2,23,5,0,4.0176277999999,2,Non-sequential,5.5717544105320584,1.6443391302264696
0006,5,2,180,5,1,8.84784609999042,2,Non-sequential,5.5717544105320584,1.6443391302264696
0006,5,2,27,6,1,7.93103789997986,2,Non-sequential,5.5717544105320584,1.6443391302264696
0006,5,2,28,6,0,4.58884710003622,2,Non-sequential,5.5717544105320584,1.6443391302264696
0007,6,2,2,1,1,4.25507239997387,1,Non-sequential,5.566400667994749,2.177098460389153
0007,6,2,3,1,0,7.83221169997705,1,Non-sequential,5.566400667994749,2.177098460389153
0007,6,2,4,1,0,7.80497239995748,1,Non-sequential,5.566400667994749,2.177098460389153
0007,6,2,5,1,1,3.95743089995813,1,Non-sequential,5.566400667994749,2.177098460389153
0007,6,2,6,2,0,4.56470950000221,1,Non-sequential,5.566400667994749,2.177098460389153
0007,6,2,7,2,0,3.92242229997646,1,Non-sequential,5.566400667994749,2.177098460389153
0007,6,2,8,2,1,4.18918389995815,1,Non-sequential,5.566400667994749,2.177098460389153
0007,6,2,9,2,0,3.28418379998766,1,Non-sequential,5.566400667994749,2.177098460389153
0007,6,2,10,2,1,5.24544620001689,1,Non-sequential,5.566400667994749,2.177098460389153
0007,6,2,11,3,0,7.43963350000558,1,Non-sequential,5.566400667994749,2.177098460389153
0007,6,2,12,3,1,8.21476160001475,1,Non-sequential,5.566400667994749,2.177098460389153
0007,6,2,13,3,1,3.26581640000222,1,Non-sequential,5.566400667994749,2.177098460389153
0007,6,2,14,3,0,4.17339109996101,1,Non-sequential,5.566400667994749,2.177098460389153
0007,6,2,15,4,0,9.16483880003216,2,Non-sequential,5.566400667994749,2.177098460389153
0007,6,2,16,4,1,5.04289340000832,2,Non-sequential,5.566400667994749,2.177098460389153
0007,6,2,17,4,0,3.42128880001837,2,Non-sequential,5.566400667994749,2.177098460389153
0007,6,2,19,4,1,6.44186500000069,2,Non-sequential,5.566400667994749,2.177098460389153
0007,6,2,20,5,1,9.43691709998529,2,Non-sequential,5.566400667994749,2.177098460389153
0007,6,2,21,5,1,5.98222339997301,2,Non-sequential,5.566400667994749,2.177098460389153
0007,6,2,171,5,1,3.23765470000217,2,Non-sequential,5.566400667994749,2.177098460389153
0007,6,2,23,5,0,3.26566189998994,2,Non-sequential,5.566400667994749,2.177098460389153
0007,6,2,180,5,1,3.5663840000052,2,Non-sequential,5.566400667994749,2.177098460389153
0007,6,2,192,6,1,3.87599900003988,2,Non-sequential,5.566400667994749,2.177098460389153
0007,6,2,27,6,1,9.46960180002498,2,Non-sequential,5.566400667994749,2.177098460389153
0007,6,2,28,6,0,8.10545309999725,2,Non-sequential,5.566400667994749,2.177098460389153
0008,6,1,2,1,1,2.53713850001805,1,Sequential,4.540338707142967,1.1582040842616361
0008,6,1,3,1,1,5.31606340000872,1,Sequential,4.540338707142967,1.1582040842616361
0008,6,1,4,1,1,6.25375760000315,1,Sequential,4.540338707142967,1.1582040842616361
0008,6,1,5,1,1,3.82803090001107,1,Sequential,4.540338707142967,1.1582040842616361
0008,6,1,6,2,0,3.70102169999154,1,Sequential,4.540338707142967,1.1582040842616361
0008,6,1,7,2,1,5.85067839999101,1,Sequential,4.540338707142967,1.1582040842616361
0008,6,1,8,2,1,4.47052750000148,1,Sequential,4.540338707142967,1.1582040842616361
0008,6,1,9,2,1,3.99630349999643,1,Sequential,4.540338707142967,1.1582040842616361
0008,6,1,10,2,0,5.41429970000172,1,Sequential,4.540338707142967,1.1582040842616361
0008,6,1,11,3,1,4.23820600000909,1,Sequential,4.540338707142967,1.1582040842616361
0008,6,1,12,3,1,4.88502539999899,1,Sequential,4.540338707142967,1.1582040842616361
0008,6,1,13,3,1,4.52360029998817,1,Sequential,4.540338707142967,1.1582040842616361
0008,6,1,14,3,1,4.03907339999569,1,Sequential,4.540338707142967,1.1582040842616361
0008,6,1,15,4,1,4.24009030000889,2,Sequential,4.540338707142967,1.1582040842616361
0008,6,1,16,4,1,3.98265219997847,2,Sequential,4.540338707142967,1.1582040842616361
0008,6,1,17,4,1,3.51717819998157,2,Sequential,4.540338707142967,1.1582040842616361
0008,6,1,18,4,1,4.83362930000294,2,Sequential,4.540338707142967,1.1582040842616361
0008,6,1,19,4,1,3.63617370001157,2,Sequential,4.540338707142967,1.1582040842616361
0008,6,1,21,5,1,3.34029970000847,2,Sequential,4.540338707142967,1.1582040842616361
0008,6,1,22,5,1,4.03243409999413,2,Sequential,4.540338707142967,1.1582040842616361
0008,6,1,23,5,1,3.54037390000303,2,Sequential,4.540338707142967,1.1582040842616361
0008,6,1,34,5,1,4.65296239999589,2,Sequential,4.540338707142967,1.1582040842616361
0008,6,1,25,6,1,4.40153760000248,2,Sequential,4.540338707142967,1.1582040842616361
0008,6,1,26,6,1,5.60025659998064,2,Sequential,4.540338707142967,1.1582040842616361
0008,6,1,27,6,1,3.63272809999762,2,Sequential,4.540338707142967,1.1582040842616361
0008,6,1,28,6,1,3.73045260002255,2,Sequential,4.540338707142967,1.1582040842616361
0009,7,2,1,1,0,6.26185079995776,1,Non-sequential,6.068867457685814,1.7077972699353492
0009,7,2,2,1,0,7.70107000001008,1,Non-sequential,6.068867457685814,1.7077972699353492
0009,7,2,3,1,0,5.31102159997681,1,Non-sequential,6.068867457685814,1.7077972699353492
0009,7,2,4,1,0,7.47100069996668,1,Non-sequential,6.068867457685814,1.7077972699353492
0009,7,2,5,1,1,3.8805806999444,1,Non-sequential,6.068867457685814,1.7077972699353492
0009,7,2,6,2,1,5.50632320001023,1,Non-sequential,6.068867457685814,1.7077972699353492
0009,7,2,7,2,1,6.97144210000988,1,Non-sequential,6.068867457685814,1.7077972699353492
0009,7,2,8,2,1,4.22093339997809,1,Non-sequential,6.068867457685814,1.7077972699353492
0009,7,2,9,2,0,4.8372860000236,1,Non-sequential,6.068867457685814,1.7077972699353492
0009,7,2,10,2,1,5.18231549998745,1,Non-sequential,6.068867457685814,1.7077972699353492
0009,7,2,11,3,0,8.34757410001475,1,Non-sequential,6.068867457685814,1.7077972699353492
0009,7,2,12,3,1,5.16371620004065,1,Non-sequential,6.068867457685814,1.7077972699353492
0009,7,2,13,3,1,4.16750439995667,1,Non-sequential,6.068867457685814,1.7077972699353492
0009,7,2,16,4,1,5.10877459996846,2,Non-sequential,6.068867457685814,1.7077972699353492
0009,7,2,17,4,1,5.28123490000144,2,Non-sequential,6.068867457685814,1.7077972699353492
0009,7,2,18,4,0,5.66434119996848,2,Non-sequential,6.068867457685814,1.7077972699353492
0009,7,2,19,4,0,6.23158840002725,2,Non-sequential,6.068867457685814,1.7077972699353492
0009,7,2,20,5,1,6.43765959999291,2,Non-sequential,6.068867457685814,1.7077972699353492
0009,7,2,171,5,1,4.1017567999661,2,Non-sequential,6.068867457685814,1.7077972699353492
0009,7,2,23,5,0,4.61716590001015,2,Non-sequential,6.068867457685814,1.7077972699353492
0009,7,2,180,5,1,4.84516000002623,2,Non-sequential,6.068867457685814,1.7077972699353492
0009,7,2,189,6,1,5.52483619999839,2,Non-sequential,6.068867457685814,1.7077972699353492
0009,7,2,192,6,1,9.38120930001605,2,Non-sequential,6.068867457685814,1.7077972699353492
0009,7,2,28,6,1,6.05507659999421,2,Non-sequential,6.068867457685814,1.7077972699353492
0010,1,2,1,1,1,8.06054109998513,1,Non-sequential,5.532312496157829,1.5140678957192646
0010,1,2,2,1,1,5.82407349999994,1,Non-sequential,5.532312496157829,1.5140678957192646
0010,1,2,3,1,0,3.82008780003525,1,Non-sequential,5.532312496157829,1.5140678957192646
0010,1,2,4,1,0,3.911802800023,1,Non-sequential,5.532312496157829,1.5140678957192646
0010,1,2,5,1,0,3.79433679999784,1,Non-sequential,5.532312496157829,1.5140678957192646
0010,1,2,6,2,1,5.47071829997003,1,Non-sequential,5.532312496157829,1.5140678957192646
0010,1,2,7,2,1,7.96105679997709,1,Non-sequential,5.532312496157829,1.5140678957192646
0010,1,2,8,2,1,6.62872709997464,1,Non-sequential,5.532312496157829,1.5140678957192646
0010,1,2,9,2,0,4.29275829996914,1,Non-sequential,5.532312496157829,1.5140678957192646
0010,1,2,10,2,1,4.6237770000007,1,Non-sequential,5.532312496157829,1.5140678957192646
0010,1,2,11,3,0,4.40845360001549,1,Non-sequential,5.532312496157829,1.5140678957192646
0010,1,2,13,3,0,5.98076260002563,1,Non-sequential,5.532312496157829,1.5140678957192646
0010,1,2,14,3,0,6.25831010000547,1,Non-sequential,5.532312496157829,1.5140678957192646
0010,1,2,15,4,0,5.49253450002288,2,Non-sequential,5.532312496157829,1.5140678957192646
0010,1,2,16,4,0,4.26382150000427,2,Non-sequential,5.532312496157829,1.5140678957192646
0010,1,2,17,4,1,6.23731019999832,2,Non-sequential,5.532312496157829,1.5140678957192646
0010,1,2,18,4,0,5.93286090000765,2,Non-sequential,5.532312496157829,1.5140678957192646
0010,1,2,19,4,1,3.46554119995562,2,Non-sequential,5.532312496157829,1.5140678957192646
0010,1,2,21,5,1,4.56322979996912,2,Non-sequential,5.532312496157829,1.5140678957192646
0010,1,2,171,5,1,3.93530270003248,2,Non-sequential,5.532312496157829,1.5140678957192646
0010,1,2,23,5,0,6.4394164000405,2,Non-sequential,5.532312496157829,1.5140678957192646
0010,1,2,180,5,0,7.91869890003,2,Non-sequential,5.532312496157829,1.5140678957192646
0010,1,2,189,6,0,5.00689120002789,2,Non-sequential,5.532312496157829,1.5140678957192646
0010,1,2,27,6,0,4.75759360002121,2,Non-sequential,5.532312496157829,1.5140678957192646
0010,1,2,28,6,0,5.44961609999882,2,Non-sequential,5.532312496157829,1.5140678957192646
0011,2,2,1,1,0,8.17377359996317,1,Non-sequential,5.772565787495599,1.891088334139771
0011,2,2,2,1,0,7.08362260001013,1,Non-sequential,5.772565787495599,1.891088334139771
0011,2,2,3,1,1,4.27655650000088,1,Non-sequential,5.772565787495599,1.891088334139771
0011,2,2,4,1,1,6.34666189999552,1,Non-sequential,5.772565787495599,1.891088334139771
0011,2,2,5,1,1,3.7753662999603,1,Non-sequential,5.772565787495599,1.891088334139771
0011,2,2,6,2,0,5.7860742000048,1,Non-sequential,5.772565787495599,1.891088334139771
0011,2,2,7,2,1,3.54126510000788,1,Non-sequential,5.772565787495599,1.891088334139771
0011,2,2,8,2,1,4.19702389999293,1,Non-sequential,5.772565787495599,1.891088334139771
0011,2,2,9,2,0,3.87437289999798,1,Non-sequential,5.772565787495599,1.891088334139771
0011,2,2,10,2,0,4.91667690000031,1,Non-sequential,5.772565787495599,1.891088334139771
0011,2,2,11,3,0,4.72953019995475,1,Non-sequential,5.772565787495599,1.891088334139771
0011,2,2,13,3,1,8.81336410000222,1,Non-sequential,5.772565787495599,1.891088334139771
0011,2,2,14,3,0,8.48085619998164,1,Non-sequential,5.772565787495599,1.891088334139771
0011,2,2,15,4,0,9.08231249998789,2,Non-sequential,5.772565787495599,1.891088334139771
0011,2,2,16,4,1,5.27238789998228,2,Non-sequential,5.772565787495599,1.891088334139771
0011,2,2,18,4,0,7.87167209998006,2,Non-sequential,5.772565787495599,1.891088334139771
0011,2,2,19,4,1,4.30339299998013,2,Non-sequential,5.772565787495599,1.891088334139771
0011,2,2,21,5,1,5.0121340000187,2,Non-sequential,5.772565787495599,1.891088334139771
0011,2,2,171,5,1,4.16723350004759,2,Non-sequential,5.772565787495599,1.891088334139771
0011,2,2,23,5,0,3.29743610002333,2,Non-sequential,5.772565787495599,1.891088334139771
0011,2,2,180,5,0,4.83765639999183,2,Non-sequential,5.772565787495599,1.891088334139771
0011,2,2,189,6,1,9.24231130001135,2,Non-sequential,5.772565787495599,1.891088334139771
0011,2,2,192,6,1,6.26196449995041,2,Non-sequential,5.772565787495599,1.891088334139771
0011,2,2,28,6,1,5.19793320004828,2,Non-sequential,5.772565787495599,1.891088334139771
0012,7,1,3,1,0,3.39513890002854,1,Sequential,3.844906550006792,0.9770437060310818
0012,7,1,4,1,1,4.85847530001774,1,Sequential,3.844906550006792,0.9770437060310818
0012,7,1,5,1,1,3.01153339998564,1,Sequential,3.844906550006792,0.9770437060310818
0012,7,1,6,2,1,3.69407029997092,1,Sequential,3.844906550006792,0.9770437060310818
0012,7,1,7,2,1,3.85873690003064,1,Sequential,3.844906550006792,0.9770437060310818
0012,7,1,8,2,1,4.19737920002081,1,Sequential,3.844906550006792,0.9770437060310818
0012,7,1,9,2,1,3.30872760002967,1,Sequential,3.844906550006792,0.9770437060310818
0012,7,1,10,2,1,2.84688570001163,1,Sequential,3.844906550006792,0.9770437060310818
0012,7,1,11,3,1,4.12356290000025,1,Sequential,3.844906550006792,0.9770437060310818
0012,7,1,12,3,1,3.68373799999245,1,Sequential,3.844906550006792,0.9770437060310818
0012,7,1,13,3,1,3.08971209998708,1,Sequential,3.844906550006792,0.9770437060310818
0012,7,1,14,3,1,3.3204697999754,1,Sequential,3.844906550006792,0.9770437060310818
0012,7,1,15,4,1,4.03747290000319,2,Sequential,3.844906550006792,0.9770437060310818
0012,7,1,16,4,1,3.69827730004909,2,Sequential,3.844906550006792,0.9770437060310818
0012,7,1,17,4,1,3.66530599998077,2,Sequential,3.844906550006792,0.9770437060310818
0012,7,1,18,4,1,4.66289500001585,2,Sequential,3.844906550006792,0.9770437060310818
0012,7,1,19,4,1,3.10428650001995,2,Sequential,3.844906550006792,0.9770437060310818
0012,7,1,20,5,1,3.13836989999982,2,Sequential,3.844906550006792,0.9770437060310818
0012,7,1,21,5,1,4.24943309999071,2,Sequential,3.844906550006792,0.9770437060310818
0012,7,1,22,5,1,5.28003890003311,2,Sequential,3.844906550006792,0.9770437060310818
0012,7,1,23,5,1,3.38042160001351,2,Sequential,3.844906550006792,0.9770437060310818
0012,7,1,34,5,1,3.29116670001531,2,Sequential,3.844906550006792,0.9770437060310818
0012,7,1,25,6,1,3.31683450000128,2,Sequential,3.844906550006792,0.9770437060310818
0012,7,1,26,6,1,3.14946610003244,2,Sequential,3.844906550006792,0.9770437060310818
0012,7,1,27,6,1,2.95396760001313,2,Sequential,3.844906550006792,0.9770437060310818
0012,7,1,28,6,1,3.24878079997143,2,Sequential,3.844906550006792,0.9770437060310818
0013,1,1,1,1,0,7.05592820001766,1,Sequential,4.696310178570067,1.2727386355517083
0013,1,1,2,1,0,6.91861079999944,1,Sequential,4.696310178570067,1.2727386355517083
0013,1,1,3,1,1,6.69772709999233,1,Sequential,4.696310178570067,1.2727386355517083
0013,1,1,4,1,1,4.97490470000776,1,Sequential,4.696310178570067,1.2727386355517083
0013,1,1,5,1,0,4.16945539996959,1,Sequential,4.696310178570067,1.2727386355517083
0013,1,1,6,2,1,6.53689349995693,1,Sequential,4.696310178570067,1.2727386355517083
0013,1,1,7,2,1,4.5449382000370004,1,Sequential,4.696310178570067,1.2727386355517083
0013,1,1,8,2,1,3.56736099999398,1,Sequential,4.696310178570067,1.2727386355517083
0013,1,1,9,2,1,3.85598579997895,1,Sequential,4.696310178570067,1.2727386355517083
0013,1,1,10,2,1,3.68817209999543,1,Sequential,4.696310178570067,1.2727386355517083
0013,1,1,11,3,1,3.99499440001091,1,Sequential,4.696310178570067,1.2727386355517083
0013,1,1,12,3,1,5.0237502999953,1,Sequential,4.696310178570067,1.2727386355517083
0013,1,1,13,3,1,3.79639259999385,1,Sequential,4.696310178570067,1.2727386355517083
0013,1,1,14,3,1,3.5595336999977,1,Sequential,4.696310178570067,1.2727386355517083
0013,1,1,15,4,0,4.6866355999955,2,Sequential,4.696310178570067,1.2727386355517083
0013,1,1,16,4,1,3.87139639997622,2,Sequential,4.696310178570067,1.2727386355517083
0013,1,1,17,4,1,3.37273800000548,2,Sequential,4.696310178570067,1.2727386355517083
0013,1,1,18,4,1,5.62425679998705,2,Sequential,4.696310178570067,1.2727386355517083
0013,1,1,19,4,1,3.11518480000086,2,Sequential,4.696310178570067,1.2727386355517083
0013,1,1,20,5,1,6.26901660003932,2,Sequential,4.696310178570067,1.2727386355517083
0013,1,1,21,5,1,4.18351699999766,2,Sequential,4.696310178570067,1.2727386355517083
0013,1,1,22,5,1,3.75824370002374,2,Sequential,4.696310178570067,1.2727386355517083
0013,1,1,23,5,0,5.75379139999859,2,Sequential,4.696310178570067,1.2727386355517083
0013,1,1,34,5,1,4.02955709997332,2,Sequential,4.696310178570067,1.2727386355517083
0013,1,1,25,6,1,3.73283240001183,2,Sequential,4.696310178570067,1.2727386355517083
0013,1,1,27,6,1,4.04509769997094,2,Sequential,4.696310178570067,1.2727386355517083
0013,1,1,28,6,1,3.40750540001318,2,Sequential,4.696310178570067,1.2727386355517083
0016,3,2,2,1,0,5.01918560010381,1,Non-sequential,4.188592588891172,0.6285347128291303
0016,3,2,3,1,1,3.84810069995001,1,Non-sequential,4.188592588891172,0.6285347128291303
0016,3,2,4,1,1,5.413004299975,1,Non-sequential,4.188592588891172,0.6285347128291303
0016,3,2,5,1,1,3.3645913999062,1,Non-sequential,4.188592588891172,0.6285347128291303
0016,3,2,6,2,0,4.86331290006638,1,Non-sequential,4.188592588891172,0.6285347128291303
0016,3,2,7,2,1,3.65290569991339,1,Non-sequential,4.188592588891172,0.6285347128291303
0016,3,2,8,2,0,3.5845013000071,1,Non-sequential,4.188592588891172,0.6285347128291303
0016,3,2,9,2,1,3.55823090008926,1,Non-sequential,4.188592588891172,0.6285347128291303
0016,3,2,10,2,1,3.89086889999453,1,Non-sequential,4.188592588891172,0.6285347128291303
0016,3,2,11,3,1,4.58023789990693,1,Non-sequential,4.188592588891172,0.6285347128291303
0016,3,2,12,3,1,4.30337119998876,1,Non-sequential,4.188592588891172,0.6285347128291303
0016,3,2,13,3,1,3.26153100002557,1,Non-sequential,4.188592588891172,0.6285347128291303
0016,3,2,14,3,0,3.77320840000175,1,Non-sequential,4.188592588891172,0.6285347128291303
0016,3,2,16,4,1,3.97338920005132,2,Non-sequential,4.188592588891172,0.6285347128291303
0016,3,2,17,4,1,3.77105500001926,2,Non-sequential,4.188592588891172,0.6285347128291303
0016,3,2,18,4,1,4.95974000007845,2,Non-sequential,4.188592588891172,0.6285347128291303
0016,3,2,19,4,1,4.15177530003712,2,Non-sequential,4.188592588891172,0.6285347128291303
0016,3,2,20,5,0,4.87240310001653,2,Non-sequential,4.188592588891172,0.6285347128291303
0016,3,2,21,5,1,4.75156680005603,2,Non-sequential,4.188592588891172,0.6285347128291303
0016,3,2,171,5,1,3.69944110000506,2,Non-sequential,4.188592588891172,0.6285347128291303
0016,3,2,23,5,0,3.87388959992677,2,Non-sequential,4.188592588891172,0.6285347128291303
0016,3,2,180,5,1,3.49609719996806,2,Non-sequential,4.188592588891172,0.6285347128291303
0016,3,2,189,6,0,4.20231209998019,2,Non-sequential,4.188592588891172,0.6285347128291303
0016,3,2,192,6,1,4.7282991000684,2,Non-sequential,4.188592588891172,0.6285347128291303
0016,3,2,27,6,0,4.22934050008189,2,Non-sequential,4.188592588891172,0.6285347128291303
0016,3,2,28,6,0,3.74518989992794,2,Non-sequential,4.188592588891172,0.6285347128291303
0018,4,2,1,1,1,6.23779840000498,1,Non-sequential,5.362150573077648,1.61122891671997
0018,4,2,2,1,0,4.4912015000009,1,Non-sequential,5.362150573077648,1.61122891671997
0018,4,2,3,1,0,3.54244879999897,1,Non-sequential,5.362150573077648,1.61122891671997
0018,4,2,5,1,1,3.65109359999769,1,Non-sequential,5.362150573077648,1.61122891671997
0018,4,2,6,2,0,3.75904889999947,1,Non-sequential,5.362150573077648,1.61122891671997
0018,4,2,7,2,0,7.04810559999896,1,Non-sequential,5.362150573077648,1.61122891671997
0018,4,2,8,2,1,4.19745049999619,1,Non-sequential,5.362150573077648,1.61122891671997
0018,4,2,9,2,0,4.35524089999672,1,Non-sequential,5.362150573077648,1.61122891671997
0018,4,2,10,2,1,4.47145880000608,1,Non-sequential,5.362150573077648,1.61122891671997
0018,4,2,12,3,1,7.72347939999599,1,Non-sequential,5.362150573077648,1.61122891671997
0018,4,2,13,3,1,4.62925209999958,1,Non-sequential,5.362150573077648,1.61122891671997
0018,4,2,14,3,0,5.00738500000443,1,Non-sequential,5.362150573077648,1.61122891671997
0018,4,2,15,4,0,5.73351480001293,2,Non-sequential,5.362150573077648,1.61122891671997
0018,4,2,16,4,0,7.13614479999524,2,Non-sequential,5.362150573077648,1.61122891671997
0018,4,2,18,4,0,6.1810942000011,2,Non-sequential,5.362150573077648,1.61122891671997
0018,4,2,19,4,1,4.883991900002,2,Non-sequential,5.362150573077648,1.61122891671997
0018,4,2,20,5,0,5.3574307999952,2,Non-sequential,5.362150573077648,1.61122891671997
0018,4,2,21,5,1,7.5619946999941,2,Non-sequential,5.362150573077648,1.61122891671997
0018,4,2,171,5,1,3.98304389999248,2,Non-sequential,5.362150573077648,1.61122891671997
0018,4,2,23,5,0,4.7356698000076,2,Non-sequential,5.362150573077648,1.61122891671997
0018,4,2,180,5,1,4.84220800000185,2,Non-sequential,5.362150573077648,1.61122891671997
0018,4,2,192,6,1,4.19470220000949,2,Non-sequential,5.362150573077648,1.61122891671997
0018,4,2,27,6,1,3.4173998000042,2,Non-sequential,5.362150573077648,1.61122891671997
0018,4,2,28,6,0,4.35720420000143,2,Non-sequential,5.362150573077648,1.61122891671997
0019,5,2,2,1,0,6.43190909999248,1,Non-sequential,5.392472849999345,1.6049286927203255
0019,5,2,3,1,1,5.41214440000476,1,Non-sequential,5.392472849999345,1.6049286927203255
0019,5,2,5,1,1,4.48050409999269,1,Non-sequential,5.392472849999345,1.6049286927203255
0019,5,2,7,2,1,5.14996399999654,1,Non-sequential,5.392472849999345,1.6049286927203255
0019,5,2,8,2,1,4.65896590000193,1,Non-sequential,5.392472849999345,1.6049286927203255
0019,5,2,9,2,0,3.3526114999986,1,Non-sequential,5.392472849999345,1.6049286927203255
0019,5,2,10,2,1,4.70512120000785,1,Non-sequential,5.392472849999345,1.6049286927203255
0019,5,2,11,3,1,6.60651159999543,1,Non-sequential,5.392472849999345,1.6049286927203255
0019,5,2,12,3,0,4.46667290000187,1,Non-sequential,5.392472849999345,1.6049286927203255
0019,5,2,13,3,1,4.14432390000729,1,Non-sequential,5.392472849999345,1.6049286927203255
0019,5,2,14,3,0,4.0172625999985,1,Non-sequential,5.392472849999345,1.6049286927203255
0019,5,2,15,4,0,4.58963889999723,2,Non-sequential,5.392472849999345,1.6049286927203255
0019,5,2,16,4,1,4.2656452999945,2,Non-sequential,5.392472849999345,1.6049286927203255
0019,5,2,17,4,1,4.6558706999931,2,Non-sequential,5.392472849999345,1.6049286927203255
0019,5,2,19,4,1,7.65075300000899,2,Non-sequential,5.392472849999345,1.6049286927203255
0019,5,2,20,5,1,8.46788869999,2,Non-sequential,5.392472849999345,1.6049286927203255
0019,5,2,21,5,1,5.42195289999654,2,Non-sequential,5.392472849999345,1.6049286927203255
0019,5,2,171,5,1,3.75373120000586,2,Non-sequential,5.392472849999345,1.6049286927203255
0019,5,2,23,5,1,5.59431409998797,2,Non-sequential,5.392472849999345,1.6049286927203255
0019,5,2,180,5,1,3.77102270000614,2,Non-sequential,5.392472849999345,1.6049286927203255
0019,5,2,27,6,1,5.32144889999472,2,Non-sequential,5.392472849999345,1.6049286927203255
0019,5,2,28,6,1,4.68572820001282,2,Non-sequential,5.392472849999345,1.6049286927203255
0020,6,2,1,1,1,7.75394340000639,1,Non-sequential,5.455915266667876,1.3767568679170332
0020,6,2,2,1,1,4.73610039999767,1,Non-sequential,5.455915266667876,1.3767568679170332
0020,6,2,3,1,0,5.85798010000144,1,Non-sequential,5.455915266667876,1.3767568679170332
0020,6,2,4,1,0,5.39836500000092,1,Non-sequential,5.455915266667876,1.3767568679170332
0020,6,2,5,1,0,6.1471457999869,1,Non-sequential,5.455915266667876,1.3767568679170332
0020,6,2,7,2,0,4.0980000999989,1,Non-sequential,5.455915266667876,1.3767568679170332
0020,6,2,8,2,1,3.64116919999651,1,Non-sequential,5.455915266667876,1.3767568679170332
0020,6,2,9,2,1,4.14156550000189,1,Non-sequential,5.455915266667876,1.3767568679170332
0020,6,2,10,2,1,7.45913000000292,1,Non-sequential,5.455915266667876,1.3767568679170332
0020,6,2,11,3,0,4.51498359999096,1,Non-sequential,5.455915266667876,1.3767568679170332
0020,6,2,12,3,1,6.71592899999814,1,Non-sequential,5.455915266667876,1.3767568679170332
0020,6,2,13,3,1,5.14955650000775,1,Non-sequential,5.455915266667876,1.3767568679170332
0020,6,2,14,3,0,4.00633180000295,1,Non-sequential,5.455915266667876,1.3767568679170332
0020,6,2,15,4,0,5.87025540000468,2,Non-sequential,5.455915266667876,1.3767568679170332
0020,6,2,16,4,0,5.67553100000077,2,Non-sequential,5.455915266667876,1.3767568679170332
0020,6,2,17,4,1,6.19062400000985,2,Non-sequential,5.455915266667876,1.3767568679170332
0020,6,2,19,4,1,4.29648600000655,2,Non-sequential,5.455915266667876,1.3767568679170332
0020,6,2,20,5,0,6.70289519999642,2,Non-sequential,5.455915266667876,1.3767568679170332
0020,6,2,21,5,1,4.4160097999993,2,Non-sequential,5.455915266667876,1.3767568679170332
0020,6,2,171,5,1,3.78892800000904,2,Non-sequential,5.455915266667876,1.3767568679170332
0020,6,2,23,5,1,3.90930970000045,2,Non-sequential,5.455915266667876,1.3767568679170332
0020,6,2,180,5,0,5.95600189999095,2,Non-sequential,5.455915266667876,1.3767568679170332
0020,6,2,189,6,1,6.2537236000062,2,Non-sequential,5.455915266667876,1.3767568679170332
0020,6,2,192,6,1,4.08391090000805,2,Non-sequential,5.455915266667876,1.3767568679170332
0020,6,2,27,6,0,7.01965830000699,2,Non-sequential,5.455915266667876,1.3767568679170332
0020,6,2,28,6,0,4.56090529999346,2,Non-sequential,5.455915266667876,1.3767568679170332
0021,5,1,1,1,1,7.4121748,1,Sequential,5.992170177272722,1.2859090354310692
0021,5,1,2,1,0,5.90965080000001,1,Sequential,5.992170177272722,1.2859090354310692
0021,5,1,3,1,1,5.2386156,1,Sequential,5.992170177272722,1.2859090354310692
0021,5,1,4,1,0,6.22164180000004,1,Sequential,5.992170177272722,1.2859090354310692
0021,5,1,5,1,0,4.79247960000004,1,Sequential,5.992170177272722,1.2859090354310692
0021,5,1,6,2,0,4.67953589999996,1,Sequential,5.992170177272722,1.2859090354310692
0021,5,1,8,2,0,6.15348289999997,1,Sequential,5.992170177272722,1.2859090354310692
0021,5,1,12,3,1,4.87723470000003,1,Sequential,5.992170177272722,1.2859090354310692
0021,5,1,13,3,1,4.76171849999992,1,Sequential,5.992170177272722,1.2859090354310692
0021,5,1,14,3,1,7.65339710000001,1,Sequential,5.992170177272722,1.2859090354310692
0021,5,1,15,4,0,4.73222699999997,2,Sequential,5.992170177272722,1.2859090354310692
0021,5,1,16,4,0,7.30415499999992,2,Sequential,5.992170177272722,1.2859090354310692
0021,5,1,17,4,1,5.30336419999992,2,Sequential,5.992170177272722,1.2859090354310692
0021,5,1,18,4,0,7.82852439999999,2,Sequential,5.992170177272722,1.2859090354310692
0021,5,1,19,4,0,4.58440159999998,2,Sequential,5.992170177272722,1.2859090354310692
0021,5,1,20,5,0,4.32780530000002,2,Sequential,5.992170177272722,1.2859090354310692
0021,5,1,21,5,1,6.41673219999996,2,Sequential,5.992170177272722,1.2859090354310692
0021,5,1,22,5,0,8.06729850000011,2,Sequential,5.992170177272722,1.2859090354310692
0021,5,1,23,5,1,8.17450650000001,2,Sequential,5.992170177272722,1.2859090354310692
0021,5,1,34,5,0,4.45264879999991,2,Sequential,5.992170177272722,1.2859090354310692
0021,5,1,26,6,1,6.13387970000008,2,Sequential,5.992170177272722,1.2859090354310692
0021,5,1,28,6,0,6.80226900000002,2,Sequential,5.992170177272722,1.2859090354310692
0601,1,1,2,1,1,5.19508999999925,1,Sequential,4.877291367857001,1.4653437874820052
0601,1,1,3,1,1,4.68267449999985,1,Sequential,4.877291367857001,1.4653437874820052
0601,1,1,4,1,1,4.36728369999946,1,Sequential,4.877291367857001,1.4653437874820052
0601,1,1,5,1,1,3.08938629999921,1,Sequential,4.877291367857001,1.4653437874820052
0601,1,1,6,2,1,4.74079939999956,1,Sequential,4.877291367857001,1.4653437874820052
0601,1,1,7,2,1,3.47116499999993,1,Sequential,4.877291367857001,1.4653437874820052
0601,1,1,8,2,1,3.87388069999997,1,Sequential,4.877291367857001,1.4653437874820052
0601,1,1,9,2,0,5.37780250000014,1,Sequential,4.877291367857001,1.4653437874820052
0601,1,1,10,2,0,6.33680050000021,1,Sequential,4.877291367857001,1.4653437874820052
0601,1,1,11,3,1,3.93298229999982,1,Sequential,4.877291367857001,1.4653437874820052
0601,1,1,12,3,0,4.52110739999989,1,Sequential,4.877291367857001,1.4653437874820052
0601,1,1,13,3,1,4.3264951000001,1,Sequential,4.877291367857001,1.4653437874820052
0601,1,1,14,3,1,3.73031029999947,1,Sequential,4.877291367857001,1.4653437874820052
0601,1,1,15,4,1,5.61853289999999,2,Sequential,4.877291367857001,1.4653437874820052
0601,1,1,16,4,1,3.8105499000003,2,Sequential,4.877291367857001,1.4653437874820052
0601,1,1,17,4,1,3.59574090000024,2,Sequential,4.877291367857001,1.4653437874820052
0601,1,1,18,4,1,7.33917999999994,2,Sequential,4.877291367857001,1.4653437874820052
0601,1,1,19,4,1,4.76575690000027,2,Sequential,4.877291367857001,1.4653437874820052
0601,1,1,20,5,1,5.82393199999933,2,Sequential,4.877291367857001,1.4653437874820052
0601,1,1,21,5,1,3.74441320000005,2,Sequential,4.877291367857001,1.4653437874820052
0601,1,1,22,5,1,3.58366729999943,2,Sequential,4.877291367857001,1.4653437874820052
0601,1,1,23,5,1,5.61558109999987,2,Sequential,4.877291367857001,1.4653437874820052
0601,1,1,34,5,1,4.79977570000028,2,Sequential,4.877291367857001,1.4653437874820052
0601,1,1,25,6,1,4.2446431999997,2,Sequential,4.877291367857001,1.4653437874820052
0601,1,1,26,6,1,7.46346579999954,2,Sequential,4.877291367857001,1.4653437874820052
0601,1,1,27,6,1,4.88408860000072,2,Sequential,4.877291367857001,1.4653437874820052
0601,1,1,28,6,1,3.72981189999973,2,Sequential,4.877291367857001,1.4653437874820052
1601,1,1,1,1,1,5.85735699999987,1,Sequential,4.740074685185054,1.8994417242985657
1601,1,1,2,1,0,7.63678609999988,1,Sequential,4.740074685185054,1.8994417242985657
1601,1,1,3,1,1,3.1299956999992,1,Sequential,4.740074685185054,1.8994417242985657
1601,1,1,4,1,0,3.46008810000058,1,Sequential,4.740074685185054,1.8994417242985657
1601,1,1,5,1,0,3.08444700000018,1,Sequential,4.740074685185054,1.8994417242985657
1601,1,1,7,2,0,3.92077210000025,1,Sequential,4.740074685185054,1.8994417242985657
1601,1,1,9,2,1,3.01434809999955,1,Sequential,4.740074685185054,1.8994417242985657
1601,1,1,10,2,1,3.75613510000039,1,Sequential,4.740074685185054,1.8994417242985657
1601,1,1,11,3,1,4.6690650999999,1,Sequential,4.740074685185054,1.8994417242985657
1601,1,1,13,3,1,4.28955410000071,1,Sequential,4.740074685185054,1.8994417242985657
1601,1,1,14,3,1,4.10073599999942,1,Sequential,4.740074685185054,1.8994417242985657
1601,1,1,15,4,1,4.31992159999936,2,Sequential,4.740074685185054,1.8994417242985657
1601,1,1,16,4,1,5.74055599999974,2,Sequential,4.740074685185054,1.8994417242985657
1601,1,1,17,4,1,3.26345899999978,2,Sequential,4.740074685185054,1.8994417242985657
1601,1,1,18,4,1,8.04957620000005,2,Sequential,4.740074685185054,1.8994417242985657
1601,1,1,19,4,1,4.39487680000002,2,Sequential,4.740074685185054,1.8994417242985657
1601,1,1,20,5,0,6.83769490000032,2,Sequential,4.740074685185054,1.8994417242985657
1601,1,1,21,5,1,3.12280809999993,2,Sequential,4.740074685185054,1.8994417242985657
1601,1,1,22,5,1,3.09771509999973,2,Sequential,4.740074685185054,1.8994417242985657
1601,1,1,23,5,1,4.89364579999983,2,Sequential,4.740074685185054,1.8994417242985657
1601,1,1,34,5,1,2.90649680000024,2,Sequential,4.740074685185054,1.8994417242985657
1601,1,1,25,6,1,4.88779629999954,2,Sequential,4.740074685185054,1.8994417242985657
1601,1,1,26,6,1,3.34671789999993,2,Sequential,4.740074685185054,1.8994417242985657
1601,1,1,27,6,1,3.83515439999974,2,Sequential,4.740074685185054,1.8994417242985657
1601,1,1,28,6,1,3.70682769999985,2,Sequential,4.740074685185054,1.8994417242985657
1602,2,1,3,1,1,4.0170980999992,1,Sequential,4.479522634615371,1.1834811587965435
1602,2,1,4,1,1,4.7234411999998,1,Sequential,4.479522634615371,1.1834811587965435
1602,2,1,5,1,1,3.2713074000003,1,Sequential,4.479522634615371,1.1834811587965435
1602,2,1,6,2,1,4.53505269999914,1,Sequential,4.479522634615371,1.1834811587965435
1602,2,1,7,2,1,3.63343600000007,1,Sequential,4.479522634615371,1.1834811587965435
1602,2,1,8,2,1,3.73241410000082,1,Sequential,4.479522634615371,1.1834811587965435
1602,2,1,9,2,1,3.65764999999919,1,Sequential,4.479522634615371,1.1834811587965435
1602,2,1,10,2,1,4.61299150000013,1,Sequential,4.479522634615371,1.1834811587965435
1602,2,1,11,3,1,3.97721529999944,1,Sequential,4.479522634615371,1.1834811587965435
1602,2,1,13,3,1,4.29192259999945,1,Sequential,4.479522634615371,1.1834811587965435
1602,2,1,14,3,1,4.08003430000099,1,Sequential,4.479522634615371,1.1834811587965435
1602,2,1,15,4,1,3.58484999999928,2,Sequential,4.479522634615371,1.1834811587965435
1602,2,1,16,4,1,4.0309711000009,2,Sequential,4.479522634615371,1.1834811587965435
1602,2,1,17,4,1,4.39061179999953,2,Sequential,4.479522634615371,1.1834811587965435
1602,2,1,18,4,1,5.12901520000014,2,Sequential,4.479522634615371,1.1834811587965435
1602,2,1,19,4,1,3.57490580000012,2,Sequential,4.479522634615371,1.1834811587965435
1602,2,1,20,5,0,6.02889930000129,2,Sequential,4.479522634615371,1.1834811587965435
1602,2,1,21,5,1,4.36798620000081,2,Sequential,4.479522634615371,1.1834811587965435
1602,2,1,22,5,1,4.49948949999998,2,Sequential,4.479522634615371,1.1834811587965435
1602,2,1,23,5,1,3.40982319999966,2,Sequential,4.479522634615371,1.1834811587965435
1602,2,1,34,5,1,4.85600089999934,2,Sequential,4.479522634615371,1.1834811587965435
1602,2,1,25,6,1,3.49223300000085,2,Sequential,4.479522634615371,1.1834811587965435
1602,2,1,26,6,1,6.45493069999975,2,Sequential,4.479522634615371,1.1834811587965435
1602,2,1,27,6,1,3.57763859999977,2,Sequential,4.479522634615371,1.1834811587965435
1602,2,1,28,6,1,5.791443600001,2,Sequential,4.479522634615371,1.1834811587965435
1603,1,2,3,1,0,3.49158499999976,1,Non-sequential,3.2919160499998594,0.6159367498896495
1603,1,2,4,1,0,3.44965709999815,1,Non-sequential,3.2919160499998594,0.6159367498896495
1603,1,2,5,1,1,2.96149570000125,1,Non-sequential,3.2919160499998594,0.6159367498896495
1603,1,2,6,2,1,4.28731300000072,1,Non-sequential,3.2919160499998594,0.6159367498896495
1603,1,2,7,2,0,3.23260459999801,1,Non-sequential,3.2919160499998594,0.6159367498896495
1603,1,2,8,2,1,3.09815789999993,1,Non-sequential,3.2919160499998594,0.6159367498896495
1603,1,2,9,2,1,3.21136670000124,1,Non-sequential,3.2919160499998594,0.6159367498896495
1603,1,2,10,2,0,2.9719030999986,1,Non-sequential,3.2919160499998594,0.6159367498896495
1603,1,2,11,3,1,3.31903210000019,1,Non-sequential,3.2919160499998594,0.6159367498896495
1603,1,2,12,3,0,3.20211660000132,1,Non-sequential,3.2919160499998594,0.6159367498896495
1603,1,2,13,3,1,2.94427519999954,1,Non-sequential,3.2919160499998594,0.6159367498896495
1603,1,2,14,3,0,2.80006589999903,1,Non-sequential,3.2919160499998594,0.6159367498896495
1603,1,2,15,4,1,2.73493199999939,2,Non-sequential,3.2919160499998594,0.6159367498896495
1603,1,2,16,4,1,3.32306260000041,2,Non-sequential,3.2919160499998594,0.6159367498896495
1603,1,2,17,4,1,2.84596200000305,2,Non-sequential,3.2919160499998594,0.6159367498896495
1603,1,2,18,4,1,3.09339349999937,2,Non-sequential,3.2919160499998594,0.6159367498896495
1603,1,2,19,4,1,3.05606669999906,2,Non-sequential,3.2919160499998594,0.6159367498896495
1603,1,2,20,5,1,2.85720519999813,2,Non-sequential,3.2919160499998594,0.6159367498896495
1603,1,2,21,5,0,2.92445470000166,2,Non-sequential,3.2919160499998594,0.6159367498896495
1603,1,2,171,5,0,2.93817539999873,2,Non-sequential,3.2919160499998594,0.6159367498896495
1603,1,2,23,5,0,3.65092490000097,2,Non-sequential,3.2919160499998594,0.6159367498896495
1603,1,2,180,5,0,3.3710116000002,2,Non-sequential,3.2919160499998594,0.6159367498896495
1603,1,2,189,6,1,3.11174050000045,2,Non-sequential,3.2919160499998594,0.6159367498896495
1603,1,2,192,6,0,3.23147450000033,2,Non-sequential,3.2919160499998594,0.6159367498896495
1603,1,2,27,6,0,2.78632730000027,2,Non-sequential,3.2919160499998594,0.6159367498896495
1603,1,2,28,6,0,2.92166299999735,2,Non-sequential,3.2919160499998594,0.6159367498896495
1604,2,2,1,1,0,7.57524839999678,1,Non-sequential,5.446094667857194,1.1125057233011906
1604,2,2,2,1,0,4.95495460000166,1,Non-sequential,5.446094667857194,1.1125057233011906
1604,2,2,3,1,0,6.46199290000004,1,Non-sequential,5.446094667857194,1.1125057233011906
1604,2,2,4,1,1,4.8834085999988,1,Non-sequential,5.446094667857194,1.1125057233011906
1604,2,2,5,1,0,6.11816800000088,1,Non-sequential,5.446094667857194,1.1125057233011906
1604,2,2,6,2,0,7.43590380000023,1,Non-sequential,5.446094667857194,1.1125057233011906
1604,2,2,7,2,0,4.0848960000003,1,Non-sequential,5.446094667857194,1.1125057233011906
1604,2,2,8,2,0,4.61839500000133,1,Non-sequential,5.446094667857194,1.1125057233011906
1604,2,2,9,2,1,6.06564000000071,1,Non-sequential,5.446094667857194,1.1125057233011906
1604,2,2,10,2,1,6.67689149999933,1,Non-sequential,5.446094667857194,1.1125057233011906
1604,2,2,11,3,1,6.55014470000242,1,Non-sequential,5.446094667857194,1.1125057233011906
1604,2,2,12,3,0,6.64284350000162,1,Non-sequential,5.446094667857194,1.1125057233011906
1604,2,2,13,3,0,4.33526459999848,1,Non-sequential,5.446094667857194,1.1125057233011906
1604,2,2,14,3,0,6.51422190000085,1,Non-sequential,5.446094667857194,1.1125057233011906
1604,2,2,15,4,0,4.24238260000129,2,Non-sequential,5.446094667857194,1.1125057233011906
1604,2,2,16,4,0,4.58564449999903,2,Non-sequential,5.446094667857194,1.1125057233011906
1604,2,2,17,4,0,5.20294599999761,2,Non-sequential,5.446094667857194,1.1125057233011906
1604,2,2,18,4,0,7.30493619999834,2,Non-sequential,5.446094667857194,1.1125057233011906
1604,2,2,19,4,0,4.47111820000282,2,Non-sequential,5.446094667857194,1.1125057233011906
1604,2,2,20,5,0,6.26459379999869,2,Non-sequential,5.446094667857194,1.1125057233011906
1604,2,2,21,5,0,5.28976200000034,2,Non-sequential,5.446094667857194,1.1125057233011906
1604,2,2,171,5,1,4.46794059999957,2,Non-sequential,5.446094667857194,1.1125057233011906
1604,2,2,23,5,1,5.42305320000014,2,Non-sequential,5.446094667857194,1.1125057233011906
1604,2,2,180,5,0,4.68799750000107,2,Non-sequential,5.446094667857194,1.1125057233011906
1604,2,2,189,6,1,4.21947739999814,2,Non-sequential,5.446094667857194,1.1125057233011906
1604,2,2,192,6,0,4.96560519999912,2,Non-sequential,5.446094667857194,1.1125057233011906
1604,2,2,27,6,0,3.75778790000186,2,Non-sequential,5.446094667857194,1.1125057233011906
1604,2,2,28,6,0,4.68943209999998,2,Non-sequential,5.446094667857194,1.1125057233011906
1801,4,1,4,1,0,6.1456838,1,Sequential,4.821341211538462,1.3525317423755887
1801,4,1,5,1,1,3.7713257,1,Sequential,4.821341211538462,1.3525317423755887
1801,4,1,6,2,1,5.5336383,1,Sequential,4.821341211538462,1.3525317423755887
1801,4,1,7,2,1,4.6982642,1,Sequential,4.821341211538462,1.3525317423755887
1801,4,1,8,2,1,6.4784864,1,Sequential,4.821341211538462,1.3525317423755887
1801,4,1,9,2,1,3.6223154,1,Sequential,4.821341211538462,1.3525317423755887
1801,4,1,10,2,0,3.9650026,1,Sequential,4.821341211538462,1.3525317423755887
1801,4,1,12,3,1,5.7396397,1,Sequential,4.821341211538462,1.3525317423755887
1801,4,1,13,3,1,3.7615309,1,Sequential,4.821341211538462,1.3525317423755887
1801,4,1,14,3,1,5.467976,1,Sequential,4.821341211538462,1.3525317423755887
1801,4,1,15,4,1,4.3831598,2,Sequential,4.821341211538462,1.3525317423755887
1801,4,1,16,4,1,4.5219151,2,Sequential,4.821341211538462,1.3525317423755887
1801,4,1,17,4,1,4.8177965,2,Sequential,4.821341211538462,1.3525317423755887
1801,4,1,18,4,0,4.3303224,2,Sequential,4.821341211538462,1.3525317423755887
1801,4,1,19,4,1,4.8200584,2,Sequential,4.821341211538462,1.3525317423755887
1801,4,1,20,5,1,4.7016471,2,Sequential,4.821341211538462,1.3525317423755887
1801,4,1,21,5,1,4.2970188,2,Sequential,4.821341211538462,1.3525317423755887
1801,4,1,22,5,1,3.9295687,2,Sequential,4.821341211538462,1.3525317423755887
1801,4,1,23,5,1,3.5535053,2,Sequential,4.821341211538462,1.3525317423755887
1801,4,1,34,5,1,3.6590163000000002,2,Sequential,4.821341211538462,1.3525317423755887
1801,4,1,25,6,1,3.8337636,2,Sequential,4.821341211538462,1.3525317423755887
1801,4,1,26,6,1,4.935505,2,Sequential,4.821341211538462,1.3525317423755887
1801,4,1,27,6,1,3.6868356,2,Sequential,4.821341211538462,1.3525317423755887
1801,4,1,28,6,1,3.6924482,2,Sequential,4.821341211538462,1.3525317423755887
1802,4,1,3,1,1,5.22842540001147,1,Sequential,4.006695873079409,0.8651922707390464
1802,4,1,5,1,1,5.19625130001805,1,Sequential,4.006695873079409,0.8651922707390464
1802,4,1,6,2,1,4.49627699999837,1,Sequential,4.006695873079409,0.8651922707390464
1802,4,1,7,2,1,5.01371880000806,1,Sequential,4.006695873079409,0.8651922707390464
1802,4,1,9,2,1,3.57046869999613,1,Sequential,4.006695873079409,0.8651922707390464
1802,4,1,10,2,1,3.42747960000997,1,Sequential,4.006695873079409,0.8651922707390464
1802,4,1,11,3,1,4.14199659999576,1,Sequential,4.006695873079409,0.8651922707390464
1802,4,1,12,3,1,3.65783949999604,1,Sequential,4.006695873079409,0.8651922707390464
1802,4,1,13,3,1,3.32907000000705,1,Sequential,4.006695873079409,0.8651922707390464
1802,4,1,14,3,0,3.06015370000387,1,Sequential,4.006695873079409,0.8651922707390464
1802,4,1,15,4,1,3.71420570000191,2,Sequential,4.006695873079409,0.8651922707390464
1802,4,1,16,4,1,3.30754489998799,2,Sequential,4.006695873079409,0.8651922707390464
1802,4,1,17,4,1,3.77536520001013,2,Sequential,4.006695873079409,0.8651922707390464
1802,4,1,18,4,1,3.62372169998707,2,Sequential,4.006695873079409,0.8651922707390464
1802,4,1,19,4,1,4.1019956000091,2,Sequential,4.006695873079409,0.8651922707390464
1802,4,1,20,5,1,3.2755424999923,2,Sequential,4.006695873079409,0.8651922707390464
1802,4,1,21,5,1,4.60642170000938,2,Sequential,4.006695873079409,0.8651922707390464
1802,4,1,22,5,1,3.3793584999803,2,Sequential,4.006695873079409,0.8651922707390464
1802,4,1,23,5,1,3.26555989999906,2,Sequential,4.006695873079409,0.8651922707390464
1802,4,1,34,5,1,3.27544170001056,2,Sequential,4.006695873079409,0.8651922707390464
1802,4,1,25,6,1,3.57545130001381,2,Sequential,4.006695873079409,0.8651922707390464
1802,4,1,26,6,1,3.95660530001624,2,Sequential,4.006695873079409,0.8651922707390464
1802,4,1,27,6,1,3.20105499998317,2,Sequential,4.006695873079409,0.8651922707390464
1802,4,1,28,6,1,3.81059070001356,2,Sequential,4.006695873079409,0.8651922707390464
1803,3,2,1,1,1,6.82083690000582,1,Non-sequential,5.637851740742378,1.5448202475965256
1803,3,2,2,1,1,6.34321439999621,1,Non-sequential,5.637851740742378,1.5448202475965256
1803,3,2,3,1,0,4.53713670000434,1,Non-sequential,5.637851740742378,1.5448202475965256
1803,3,2,4,1,1,4.57460280001396,1,Non-sequential,5.637851740742378,1.5448202475965256
1803,3,2,5,1,0,4.59741759998724,1,Non-sequential,5.637851740742378,1.5448202475965256
1803,3,2,6,2,1,7.08260360002168,1,Non-sequential,5.637851740742378,1.5448202475965256
1803,3,2,7,2,0,4.5074463999772,1,Non-sequential,5.637851740742378,1.5448202475965256
1803,3,2,9,2,0,4.30478549998952,1,Non-sequential,5.637851740742378,1.5448202475965256
1803,3,2,10,2,1,5.48749800000223,1,Non-sequential,5.637851740742378,1.5448202475965256
1803,3,2,11,3,0,5.44135820001247,1,Non-sequential,5.637851740742378,1.5448202475965256
1803,3,2,13,3,0,4.23883429999114,1,Non-sequential,5.637851740742378,1.5448202475965256
1803,3,2,14,3,1,5.32508100001724,1,Non-sequential,5.637851740742378,1.5448202475965256
1803,3,2,15,4,1,5.2684397000121,2,Non-sequential,5.637851740742378,1.5448202475965256
1803,3,2,16,4,0,4.87023060000502,2,Non-sequential,5.637851740742378,1.5448202475965256
1803,3,2,17,4,0,5.08813439999358,2,Non-sequential,5.637851740742378,1.5448202475965256
1803,3,2,18,4,0,5.45372459999635,2,Non-sequential,5.637851740742378,1.5448202475965256
1803,3,2,19,4,1,4.32042109998292,2,Non-sequential,5.637851740742378,1.5448202475965256
1803,3,2,21,5,0,5.35925480001606,2,Non-sequential,5.637851740742378,1.5448202475965256
1803,3,2,171,5,1,4.32540380000137,2,Non-sequential,5.637851740742378,1.5448202475965256
1803,3,2,180,5,0,5.76169549999759,2,Non-sequential,5.637851740742378,1.5448202475965256
1803,3,2,189,6,1,4.29531079999288,2,Non-sequential,5.637851740742378,1.5448202475965256
1803,3,2,192,6,1,5.95231430002605,2,Non-sequential,5.637851740742378,1.5448202475965256
1803,3,2,27,6,0,4.02967979997629,2,Non-sequential,5.637851740742378,1.5448202475965256
1803,3,2,28,6,1,6.21599219998461,2,Non-sequential,5.637851740742378,1.5448202475965256
1901,3,1,2,1,0,6.2854634,1,Sequential,4.614673866666667,1.1796890633833303
1901,3,1,3,1,1,6.0099383,1,Sequential,4.614673866666667,1.1796890633833303
1901,3,1,4,1,1,4.4831028,1,Sequential,4.614673866666667,1.1796890633833303
1901,3,1,5,1,1,4.5197963,1,Sequential,4.614673866666667,1.1796890633833303
1901,3,1,6,2,1,4.2581451,1,Sequential,4.614673866666667,1.1796890633833303
1901,3,1,8,2,1,4.1270149,1,Sequential,4.614673866666667,1.1796890633833303
1901,3,1,9,2,1,3.6663782,1,Sequential,4.614673866666667,1.1796890633833303
1901,3,1,10,2,1,4.9293915,1,Sequential,4.614673866666667,1.1796890633833303
1901,3,1,11,3,1,4.7195487,1,Sequential,4.614673866666667,1.1796890633833303
1901,3,1,12,3,1,6.3634507,1,Sequential,4.614673866666667,1.1796890633833303
1901,3,1,13,3,1,6.0026808,1,Sequential,4.614673866666667,1.1796890633833303
1901,3,1,14,3,1,3.8838622,1,Sequential,4.614673866666667,1.1796890633833303
1901,3,1,15,4,1,3.9579157,2,Sequential,4.614673866666667,1.1796890633833303
1901,3,1,16,4,1,5.2122527,2,Sequential,4.614673866666667,1.1796890633833303
1901,3,1,17,4,1,4.571244,2,Sequential,4.614673866666667,1.1796890633833303
1901,3,1,18,4,1,4.350013,2,Sequential,4.614673866666667,1.1796890633833303
1901,3,1,19,4,1,4.0740602,2,Sequential,4.614673866666667,1.1796890633833303
1901,3,1,20,5,1,3.5461675,2,Sequential,4.614673866666667,1.1796890633833303
1901,3,1,21,5,1,4.1735238,2,Sequential,4.614673866666667,1.1796890633833303
1901,3,1,22,5,1,3.4412763,2,Sequential,4.614673866666667,1.1796890633833303
1901,3,1,23,5,1,3.5706203,2,Sequential,4.614673866666667,1.1796890633833303
1901,3,1,34,5,1,5.2188894,2,Sequential,4.614673866666667,1.1796890633833303
1901,3,1,25,6,1,3.4907764,2,Sequential,4.614673866666667,1.1796890633833303
1901,3,1,26,6,1,3.6035885,2,Sequential,4.614673866666667,1.1796890633833303
1901,3,1,27,6,1,3.6807406,2,Sequential,4.614673866666667,1.1796890633833303
1901,3,1,28,6,1,3.8265047,2,Sequential,4.614673866666667,1.1796890633833303
1902,5,1,2,1,1,6.65354440000374,1,Sequential,5.171603148154206,1.4028216251841035
1902,5,1,3,1,1,6.78867229999742,1,Sequential,5.171603148154206,1.4028216251841035
1902,5,1,4,1,1,3.77450729999691,1,Sequential,5.171603148154206,1.4028216251841035
1902,5,1,5,1,1,5.10883439995814,1,Sequential,5.171603148154206,1.4028216251841035
1902,5,1,6,2,0,6.64386340003693,1,Sequential,5.171603148154206,1.4028216251841035
1902,5,1,7,2,1,5.01571990002412,1,Sequential,5.171603148154206,1.4028216251841035
1902,5,1,8,2,1,5.58820060000289,1,Sequential,5.171603148154206,1.4028216251841035
1902,5,1,9,2,1,4.20672299998114,1,Sequential,5.171603148154206,1.4028216251841035
1902,5,1,10,2,1,7.65886640001554,1,Sequential,5.171603148154206,1.4028216251841035
1902,5,1,11,3,0,5.48653449997073,1,Sequential,5.171603148154206,1.4028216251841035
1902,5,1,13,3,1,4.08569320000242,1,Sequential,5.171603148154206,1.4028216251841035
1902,5,1,14,3,1,5.27541390003171,1,Sequential,5.171603148154206,1.4028216251841035
1902,5,1,15,4,1,6.6614253000007,2,Sequential,5.171603148154206,1.4028216251841035
1902,5,1,16,4,1,4.4834511000081,2,Sequential,5.171603148154206,1.4028216251841035
1902,5,1,17,4,1,3.85811199998716,2,Sequential,5.171603148154206,1.4028216251841035
1902,5,1,18,4,1,5.48297260003164,2,Sequential,5.171603148154206,1.4028216251841035
1902,5,1,19,4,1,3.54726500000106,2,Sequential,5.171603148154206,1.4028216251841035
1902,5,1,20,5,1,7.18618630000856,2,Sequential,5.171603148154206,1.4028216251841035
1902,5,1,21,5,1,3.59491059998982,2,Sequential,5.171603148154206,1.4028216251841035
1902,5,1,22,5,1,3.33404790004715,2,Sequential,5.171603148154206,1.4028216251841035
1902,5,1,23,5,1,4.88373070000671,2,Sequential,5.171603148154206,1.4028216251841035
1902,5,1,34,5,1,4.79705059999833,2,Sequential,5.171603148154206,1.4028216251841035
1902,5,1,25,6,1,5.38328850001562,2,Sequential,5.171603148154206,1.4028216251841035
1902,5,1,26,6,1,4.22317740001017,2,Sequential,5.171603148154206,1.4028216251841035
1902,5,1,27,6,1,4.06010970001807,2,Sequential,5.171603148154206,1.4028216251841035
1902,5,1,28,6,1,3.28010510001332,2,Sequential,5.171603148154206,1.4028216251841035
2001,4,2,3,1,1,5.47803529998055,1,Non-sequential,4.7768533000036975,1.3652059571280029
2001,4,2,4,1,0,4.21204479999142,1,Non-sequential,4.7768533000036975,1.3652059571280029
2001,4,2,5,1,1,3.6030757999979,1,Non-sequential,4.7768533000036975,1.3652059571280029
2001,4,2,6,2,1,6.59284980001394,1,Non-sequential,4.7768533000036975,1.3652059571280029
2001,4,2,7,2,1,7.34779560001334,1,Non-sequential,4.7768533000036975,1.3652059571280029
2001,4,2,8,2,0,6.13687509996817,1,Non-sequential,4.7768533000036975,1.3652059571280029
2001,4,2,9,2,1,4.74337490001926,1,Non-sequential,4.7768533000036975,1.3652059571280029
2001,4,2,10,2,0,6.13927579997107,1,Non-sequential,4.7768533000036975,1.3652059571280029
2001,4,2,11,3,1,4.44393030001083,1,Non-sequential,4.7768533000036975,1.3652059571280029
2001,4,2,12,3,0,4.77034510002704,1,Non-sequential,4.7768533000036975,1.3652059571280029
2001,4,2,13,3,1,3.48631199996453,1,Non-sequential,4.7768533000036975,1.3652059571280029
2001,4,2,14,3,1,6.93971740000416,1,Non-sequential,4.7768533000036975,1.3652059571280029
2001,4,2,15,4,1,3.38117529998999,2,Non-sequential,4.7768533000036975,1.3652059571280029
2001,4,2,16,4,1,4.25215149996802,2,Non-sequential,4.7768533000036975,1.3652059571280029
2001,4,2,17,4,1,4.32619130000239,2,Non-sequential,4.7768533000036975,1.3652059571280029
2001,4,2,18,4,1,5.67178610002156,2,Non-sequential,4.7768533000036975,1.3652059571280029
2001,4,2,19,4,1,3.54304630000843,2,Non-sequential,4.7768533000036975,1.3652059571280029
2001,4,2,20,5,0,3.01135659997817,2,Non-sequential,4.7768533000036975,1.3652059571280029
2001,4,2,21,5,1,4.55886840005405,2,Non-sequential,4.7768533000036975,1.3652059571280029
2001,4,2,171,5,1,4.17169570003171,2,Non-sequential,4.7768533000036975,1.3652059571280029
2001,4,2,23,5,1,3.22470110002905,2,Non-sequential,4.7768533000036975,1.3652059571280029
2001,4,2,180,5,1,3.428946,2,Non-sequential,4.7768533000036975,1.3652059571280029
2001,4,2,189,6,1,5.07754510000814,2,Non-sequential,4.7768533000036975,1.3652059571280029
2001,4,2,192,6,1,6.24696140002925,2,Non-sequential,4.7768533000036975,1.3652059571280029
2001,4,2,27,6,1,3.28708340000594,2,Non-sequential,4.7768533000036975,1.3652059571280029
2001,4,2,28,6,1,3.29941380000673,2,Non-sequential,4.7768533000036975,1.3652059571280029
2002,5,2,1,1,1,5.84921860002214,1,Non-sequential,4.337181670375651,1.402605291336383
2002,5,2,3,1,1,6.45564860000741,1,Non-sequential,4.337181670375651,1.402605291336383
2002,5,2,4,1,1,4.5651165000163,1,Non-sequential,4.337181670375651,1.402605291336383
2002,5,2,5,1,1,3.23292049998417,1,Non-sequential,4.337181670375651,1.402605291336383
2002,5,2,6,2,0,3.89209940005094,1,Non-sequential,4.337181670375651,1.402605291336383
2002,5,2,7,2,0,5.04442530003143,1,Non-sequential,4.337181670375651,1.402605291336383
2002,5,2,8,2,1,3.44853440002771,1,Non-sequential,4.337181670375651,1.402605291336383
2002,5,2,9,2,0,3.93821340001887,1,Non-sequential,4.337181670375651,1.402605291336383
2002,5,2,10,2,1,3.45467439998174,1,Non-sequential,4.337181670375651,1.402605291336383
2002,5,2,11,3,0,5.16263540001819,1,Non-sequential,4.337181670375651,1.402605291336383
2002,5,2,13,3,1,3.77498560003005,1,Non-sequential,4.337181670375651,1.402605291336383
2002,5,2,14,3,0,3.0819292999804,1,Non-sequential,4.337181670375651,1.402605291336383
2002,5,2,15,4,0,6.89959759998601,2,Non-sequential,4.337181670375651,1.402605291336383
2002,5,2,16,4,1,3.55889330001082,2,Non-sequential,4.337181670375651,1.402605291336383
2002,5,2,17,4,1,3.27981079998426,2,Non-sequential,4.337181670375651,1.402605291336383
2002,5,2,18,4,0,6.9169905000017,2,Non-sequential,4.337181670375651,1.402605291336383
2002,5,2,19,4,0,4.01201489998493,2,Non-sequential,4.337181670375651,1.402605291336383
2002,5,2,20,5,1,3.53196609998122,2,Non-sequential,4.337181670375651,1.402605291336383
2002,5,2,21,5,0,4.00740210001823,2,Non-sequential,4.337181670375651,1.402605291336383
2002,5,2,171,5,1,3.10184479999589,2,Non-sequential,4.337181670375651,1.402605291336383
2002,5,2,23,5,0,3.23801259999163,2,Non-sequential,4.337181670375651,1.402605291336383
2002,5,2,180,5,1,3.35586399998283,2,Non-sequential,4.337181670375651,1.402605291336383
2002,5,2,189,6,1,3.52829390001716,2,Non-sequential,4.337181670375651,1.402605291336383
2002,5,2,192,6,0,4.02132319996599,2,Non-sequential,4.337181670375651,1.402605291336383
2002,5,2,27,6,1,3.39582520001568,2,Non-sequential,4.337181670375651,1.402605291336383
2002,5,2,28,6,0,3.81483920000028,2,Non-sequential,4.337181670375651,1.402605291336383
2003,6,2,1,1,1,6.36090719996719,1,Non-sequential,4.975458603570588,1.2639826781040502
2003,6,2,2,1,1,7.08049490000121,1,Non-sequential,4.975458603570588,1.2639826781040502
2003,6,2,3,1,1,4.49711369996658,1,Non-sequential,4.975458603570588,1.2639826781040502
2003,6,2,4,1,0,6.05299029999878,1,Non-sequential,4.975458603570588,1.2639826781040502
2003,6,2,5,1,1,4.21269080002094,1,Non-sequential,4.975458603570588,1.2639826781040502
2003,6,2,6,2,0,5.91833109996514,1,Non-sequential,4.975458603570588,1.2639826781040502
2003,6,2,7,2,1,5.66448000003584,1,Non-sequential,4.975458603570588,1.2639826781040502
2003,6,2,8,2,1,4.0710165000055,1,Non-sequential,4.975458603570588,1.2639826781040502
2003,6,2,9,2,0,3.64419590000762,1,Non-sequential,4.975458603570588,1.2639826781040502
2003,6,2,11,3,0,4.14142040000297,1,Non-sequential,4.975458603570588,1.2639826781040502
2003,6,2,12,3,1,6.15414250001777,1,Non-sequential,4.975458603570588,1.2639826781040502
2003,6,2,13,3,0,4.42322679999052,1,Non-sequential,4.975458603570588,1.2639826781040502
2003,6,2,14,3,0,3.52201620000415,1,Non-sequential,4.975458603570588,1.2639826781040502
2003,6,2,15,4,0,6.57458039995981,2,Non-sequential,4.975458603570588,1.2639826781040502
2003,6,2,16,4,1,4.199225999997,2,Non-sequential,4.975458603570588,1.2639826781040502
2003,6,2,17,4,1,3.36068979999982,2,Non-sequential,4.975458603570588,1.2639826781040502
2003,6,2,18,4,1,5.83745600003749,2,Non-sequential,4.975458603570588,1.2639826781040502
2003,6,2,19,4,1,3.1437586999964,2,Non-sequential,4.975458603570588,1.2639826781040502
2003,6,2,20,5,0,5.67123520001769,2,Non-sequential,4.975458603570588,1.2639826781040502
2003,6,2,21,5,1,4.23012319998816,2,Non-sequential,4.975458603570588,1.2639826781040502
2003,6,2,171,5,1,3.2557365000248,2,Non-sequential,4.975458603570588,1.2639826781040502
2003,6,2,23,5,0,4.72898019995773,2,Non-sequential,4.975458603570588,1.2639826781040502
2003,6,2,180,5,0,6.24276529997587,2,Non-sequential,4.975458603570588,1.2639826781040502
2003,6,2,189,6,1,5.73706329998095,2,Non-sequential,4.975458603570588,1.2639826781040502
2003,6,2,192,6,1,5.6832983000204,2,Non-sequential,4.975458603570588,1.2639826781040502
2003,6,2,27,6,1,3.48696429998381,2,Non-sequential,4.975458603570588,1.2639826781040502
2003,6,2,28,6,0,3.80441470001824,2,Non-sequential,4.975458603570588,1.2639826781040502
2004,6,1,3,1,1,6.7564559999737,1,Sequential,4.684474435993471,1.4766940921327603
2004,6,1,5,1,1,3.79427370004123,1,Sequential,4.684474435993471,1.4766940921327603
2004,6,1,7,2,1,5.3677359999856,1,Sequential,4.684474435993471,1.4766940921327603
2004,6,1,8,2,1,4.13790560001507,1,Sequential,4.684474435993471,1.4766940921327603
2004,6,1,9,2,1,5.91632179997396,1,Sequential,4.684474435993471,1.4766940921327603
2004,6,1,10,2,1,4.50266459997511,1,Sequential,4.684474435993471,1.4766940921327603
2004,6,1,11,3,1,4.61009480000939,1,Sequential,4.684474435993471,1.4766940921327603
2004,6,1,12,3,1,6.24059120001039,1,Sequential,4.684474435993471,1.4766940921327603
2004,6,1,13,3,1,4.1473580999882,1,Sequential,4.684474435993471,1.4766940921327603
2004,6,1,14,3,1,3.40484910004307,1,Sequential,4.684474435993471,1.4766940921327603
2004,6,1,15,4,1,7.03209429996787,2,Sequential,4.684474435993471,1.4766940921327603
2004,6,1,16,4,1,4.23520599998301,2,Sequential,4.684474435993471,1.4766940921327603
2004,6,1,17,4,1,3.59888659999706,2,Sequential,4.684474435993471,1.4766940921327603
2004,6,1,18,4,1,3.61382299999241,2,Sequential,4.684474435993471,1.4766940921327603
2004,6,1,19,4,1,3.56816139997682,2,Sequential,4.684474435993471,1.4766940921327603
2004,6,1,20,5,1,4.14899369998602,2,Sequential,4.684474435993471,1.4766940921327603
2004,6,1,21,5,1,5.121759200003,2,Sequential,4.684474435993471,1.4766940921327603
2004,6,1,22,5,1,3.45252350001829,2,Sequential,4.684474435993471,1.4766940921327603
2004,6,1,23,5,1,3.41623750003055,2,Sequential,4.684474435993471,1.4766940921327603
2004,6,1,34,5,1,3.95079889998306,2,Sequential,4.684474435993471,1.4766940921327603
2004,6,1,25,6,1,4.01957179995952,2,Sequential,4.684474435993471,1.4766940921327603
2004,6,1,26,6,1,5.14860700001009,2,Sequential,4.684474435993471,1.4766940921327603
2004,6,1,27,6,1,3.47012789995642,2,Sequential,4.684474435993471,1.4766940921327603
2004,6,1,28,6,1,3.74875069997506,2,Sequential,4.684474435993471,1.4766940921327603
2005,7,1,1,1,1,6.16053489997284,1,Sequential,4.501642124999697,1.2541936670505276
2005,7,1,2,1,0,5.16013639996527,1,Sequential,4.501642124999697,1.2541936670505276
2005,7,1,3,1,0,4.59067919995869,1,Sequential,4.501642124999697,1.2541936670505276
2005,7,1,5,1,0,3.94462550000753,1,Sequential,4.501642124999697,1.2541936670505276
2005,7,1,6,2,0,4.29418039997108,1,Sequential,4.501642124999697,1.2541936670505276
2005,7,1,7,2,1,4.89511819998734,1,Sequential,4.501642124999697,1.2541936670505276
2005,7,1,8,2,1,4.39624669996556,1,Sequential,4.501642124999697,1.2541936670505276
2005,7,1,9,2,1,4.24563189997571,1,Sequential,4.501642124999697,1.2541936670505276
2005,7,1,10,2,1,3.71524160000263,1,Sequential,4.501642124999697,1.2541936670505276
2005,7,1,11,3,1,4.49275680002756,1,Sequential,4.501642124999697,1.2541936670505276
2005,7,1,13,3,1,4.07340650004335,1,Sequential,4.501642124999697,1.2541936670505276
2005,7,1,14,3,1,3.61187080002856,1,Sequential,4.501642124999697,1.2541936670505276
2005,7,1,15,4,1,3.5796709000133,2,Sequential,4.501642124999697,1.2541936670505276
2005,7,1,16,4,1,3.71783380000852,2,Sequential,4.501642124999697,1.2541936670505276
2005,7,1,17,4,1,4.31209269998362,2,Sequential,4.501642124999697,1.2541936670505276
2005,7,1,18,4,1,6.39508420001948,2,Sequential,4.501642124999697,1.2541936670505276
2005,7,1,19,4,1,3.44521880004322,2,Sequential,4.501642124999697,1.2541936670505276
2005,7,1,20,5,1,4.49674509995384,2,Sequential,4.501642124999697,1.2541936670505276
2005,7,1,21,5,1,3.61815549997846,2,Sequential,4.501642124999697,1.2541936670505276
2005,7,1,22,5,1,3.73833000002196,2,Sequential,4.501642124999697,1.2541936670505276
2005,7,1,23,5,1,3.40234560001409,2,Sequential,4.501642124999697,1.2541936670505276
2005,7,1,34,5,1,4.74837480002316,2,Sequential,4.501642124999697,1.2541936670505276
2005,7,1,25,6,1,5.29585630004294,2,Sequential,4.501642124999697,1.2541936670505276
2005,7,1,26,6,1,3.96958319999976,2,Sequential,4.501642124999697,1.2541936670505276
2005,7,1,27,6,1,3.1089556000079,2,Sequential,4.501642124999697,1.2541936670505276
2005,7,1,28,6,1,2.88092389999656,2,Sequential,4.501642124999697,1.2541936670505276
2301,1,2,2,1,1,4.47705599999972,1,Non-sequential,4.89207482142857,1.3815840896075087
2301,1,2,3,1,0,4.09247589999995,1,Non-sequential,4.89207482142857,1.3815840896075087
2301,1,2,4,1,1,4.24903390000009,1,Non-sequential,4.89207482142857,1.3815840896075087
2301,1,2,5,1,1,3.73740879999969,1,Non-sequential,4.89207482142857,1.3815840896075087
2301,1,2,6,2,0,5.04470330000004,1,Non-sequential,4.89207482142857,1.3815840896075087
2301,1,2,7,2,1,3.65789219999988,1,Non-sequential,4.89207482142857,1.3815840896075087
2301,1,2,8,2,1,3.70318080000015,1,Non-sequential,4.89207482142857,1.3815840896075087
2301,1,2,9,2,0,4.79313420000017,1,Non-sequential,4.89207482142857,1.3815840896075087
2301,1,2,10,2,1,4.24962300000016,1,Non-sequential,4.89207482142857,1.3815840896075087
2301,1,2,11,3,0,4.59319669999968,1,Non-sequential,4.89207482142857,1.3815840896075087
2301,1,2,12,3,0,4.30816060000006,1,Non-sequential,4.89207482142857,1.3815840896075087
2301,1,2,13,3,1,4.38668340000004,1,Non-sequential,4.89207482142857,1.3815840896075087
2301,1,2,14,3,0,6.02309269999978,1,Non-sequential,4.89207482142857,1.3815840896075087
2301,1,2,15,4,0,4.1060252000002,2,Non-sequential,4.89207482142857,1.3815840896075087
2301,1,2,16,4,1,3.83426630000031,2,Non-sequential,4.89207482142857,1.3815840896075087
2301,1,2,17,4,1,3.51721559999987,2,Non-sequential,4.89207482142857,1.3815840896075087
2301,1,2,18,4,0,7.00381110000035,2,Non-sequential,4.89207482142857,1.3815840896075087
2301,1,2,19,4,1,4.46258919999991,2,Non-sequential,4.89207482142857,1.3815840896075087
2301,1,2,20,5,0,4.4630159999997,2,Non-sequential,4.89207482142857,1.3815840896075087
2301,1,2,21,5,1,4.88260859999991,2,Non-sequential,4.89207482142857,1.3815840896075087
2301,1,2,171,5,1,3.5987227999999,2,Non-sequential,4.89207482142857,1.3815840896075087
2301,1,2,23,5,0,5.46396159999995,2,Non-sequential,4.89207482142857,1.3815840896075087
2301,1,2,180,5,1,4.17241589999958,2,Non-sequential,4.89207482142857,1.3815840896075087
2301,1,2,189,6,0,5.98284700000022,2,Non-sequential,4.89207482142857,1.3815840896075087
2301,1,2,192,6,0,3.85060659999999,2,Non-sequential,4.89207482142857,1.3815840896075087
2302,7,2,1,1,0,3.39118720000079,1,Non-sequential,3.7328919000000425,1.5876835908999964
2302,7,2,2,1,1,2.64022060000025,1,Non-sequential,3.7328919000000425,1.5876835908999964
2302,7,2,3,1,1,1.7817344999994,1,Non-sequential,3.7328919000000425,1.5876835908999964
2302,7,2,4,1,1,2.13006630000018,1,Non-sequential,3.7328919000000425,1.5876835908999964
2302,7,2,5,1,1,2.10201990000041,1,Non-sequential,3.7328919000000425,1.5876835908999964
2302,7,2,6,2,1,2.8999090999996,1,Non-sequential,3.7328919000000425,1.5876835908999964
2302,7,2,7,2,0,1.47964370000045,1,Non-sequential,3.7328919000000425,1.5876835908999964
2302,7,2,8,2,1,1.24655110000003,1,Non-sequential,3.7328919000000425,1.5876835908999964
2302,7,2,9,2,0,2.35931299999993,1,Non-sequential,3.7328919000000425,1.5876835908999964
2302,7,2,10,2,0,2.30667900000026,1,Non-sequential,3.7328919000000425,1.5876835908999964
2302,7,2,11,3,0,4.94090700000015,1,Non-sequential,3.7328919000000425,1.5876835908999964
2302,7,2,12,3,0,1.5570131000004,1,Non-sequential,3.7328919000000425,1.5876835908999964
2302,7,2,13,3,1,4.03318500000023,1,Non-sequential,3.7328919000000425,1.5876835908999964
2302,7,2,14,3,0,3.69171129999995,1,Non-sequential,3.7328919000000425,1.5876835908999964
2302,7,2,15,4,1,4.1377863000007,2,Non-sequential,3.7328919000000425,1.5876835908999964
2302,7,2,16,4,1,5.02846769999996,2,Non-sequential,3.7328919000000425,1.5876835908999964
2302,7,2,17,4,1,4.41341079999984,2,Non-sequential,3.7328919000000425,1.5876835908999964
2302,7,2,18,4,0,3.99309139999968,2,Non-sequential,3.7328919000000425,1.5876835908999964
2302,7,2,20,5,0,5.27467109999998,2,Non-sequential,3.7328919000000425,1.5876835908999964
2302,7,2,21,5,0,4.19313369999963,2,Non-sequential,3.7328919000000425,1.5876835908999964
2302,7,2,171,5,1,4.71409810000023,2,Non-sequential,3.7328919000000425,1.5876835908999964
2302,7,2,23,5,0,3.68579189999946,2,Non-sequential,3.7328919000000425,1.5876835908999964
2302,7,2,180,5,1,3.73246519999975,2,Non-sequential,3.7328919000000425,1.5876835908999964
2302,7,2,192,6,1,4.39713029999984,2,Non-sequential,3.7328919000000425,1.5876835908999964
2302,7,2,27,6,1,5.1057866000001,2,Non-sequential,3.7328919000000425,1.5876835908999964
2302,7,2,28,6,0,4.35920780000015,2,Non-sequential,3.7328919000000425,1.5876835908999964
2303,2,2,2,1,0,5.46447090000038,1,Non-sequential,4.397145346428519,0.8858851866885815
2303,2,2,3,1,0,3.90264599999864,1,Non-sequential,4.397145346428519,0.8858851866885815
2303,2,2,4,1,0,4.52110309999989,1,Non-sequential,4.397145346428519,0.8858851866885815
2303,2,2,5,1,1,4.39956849999908,1,Non-sequential,4.397145346428519,0.8858851866885815
2303,2,2,6,2,1,5.36572370000067,1,Non-sequential,4.397145346428519,0.8858851866885815
2303,2,2,7,2,1,3.78185010000016,1,Non-sequential,4.397145346428519,0.8858851866885815
2303,2,2,8,2,1,3.77234219999991,1,Non-sequential,4.397145346428519,0.8858851866885815
2303,2,2,9,2,0,3.99497760000122,1,Non-sequential,4.397145346428519,0.8858851866885815
2303,2,2,10,2,0,5.61085759999878,1,Non-sequential,4.397145346428519,0.8858851866885815
2303,2,2,11,3,1,5.12727319999976,1,Non-sequential,4.397145346428519,0.8858851866885815
2303,2,2,12,3,1,5.24199920000137,1,Non-sequential,4.397145346428519,0.8858851866885815
2303,2,2,13,3,1,3.47894939999969,1,Non-sequential,4.397145346428519,0.8858851866885815
2303,2,2,14,3,0,3.53151770000113,1,Non-sequential,4.397145346428519,0.8858851866885815
2303,2,2,15,4,0,3.33702070000072,2,Non-sequential,4.397145346428519,0.8858851866885815
2303,2,2,16,4,1,5.40027389999887,2,Non-sequential,4.397145346428519,0.8858851866885815
2303,2,2,17,4,1,4.18634050000037,2,Non-sequential,4.397145346428519,0.8858851866885815
2303,2,2,18,4,1,5.38364829999955,2,Non-sequential,4.397145346428519,0.8858851866885815
2303,2,2,19,4,1,3.63280659999873,2,Non-sequential,4.397145346428519,0.8858851866885815
2303,2,2,20,5,0,3.9773456999992,2,Non-sequential,4.397145346428519,0.8858851866885815
2303,2,2,21,5,1,3.29632440000023,2,Non-sequential,4.397145346428519,0.8858851866885815
2303,2,2,171,5,1,3.38162430000011,2,Non-sequential,4.397145346428519,0.8858851866885815
2303,2,2,23,5,0,3.5228833000001,2,Non-sequential,4.397145346428519,0.8858851866885815
2303,2,2,180,5,0,4.54470320000109,2,Non-sequential,4.397145346428519,0.8858851866885815
2303,2,2,189,6,1,5.33871329999965,2,Non-sequential,4.397145346428519,0.8858851866885815
2303,2,2,192,6,1,4.79498120000062,2,Non-sequential,4.397145346428519,0.8858851866885815
2303,2,2,27,6,1,3.50476770000023,2,Non-sequential,4.397145346428519,0.8858851866885815
2303,2,2,28,6,0,3.9810370999985,2,Non-sequential,4.397145346428519,0.8858851866885815
0001,2,1,1,1,0,5.97242589993402,1,Sequential,4.55221942497883,0.943144353983975
0001,2,1,2,1,0,4.47606060001999,1,Sequential,4.55221942497883,0.943144353983975
0001,2,1,3,1,1,4.51943310000934,1,Sequential,4.55221942497883,0.943144353983975
0001,2,1,4,1,1,3.99723449989688,1,Sequential,4.55221942497883,0.943144353983975
0001,2,1,5,1,1,5.36293179995846,1,Sequential,4.55221942497883,0.943144353983975
0001,2,1,6,2,0,6.27343649999239,1,Sequential,4.55221942497883,0.943144353983975
0001,2,1,7,2,1,3.61298850004096,1,Sequential,4.55221942497883,0.943144353983975
0001,2,1,8,2,1,4.15602719993331,1,Sequential,4.55221942497883,0.943144353983975
0001,2,1,9,2,1,3.57444090000354,1,Sequential,4.55221942497883,0.943144353983975
0001,2,1,10,2,0,5.947355399956,1,Sequential,4.55221942497883,0.943144353983975
0001,2,1,11,3,1,3.45117770007346,1,Sequential,4.55221942497883,0.943144353983975
0001,2,1,12,3,1,6.39848689991049,1,Sequential,4.55221942497883,0.943144353983975
0001,2,1,13,3,0,4.55120810004883,1,Sequential,4.55221942497883,0.943144353983975
0001,2,1,14,3,1,4.18651289993431,1,Sequential,4.55221942497883,0.943144353983975
0001,2,1,15,4,1,3.65483100002166,2,Sequential,4.55221942497883,0.943144353983975
0001,2,1,16,4,1,3.90455340000335,2,Sequential,4.55221942497883,0.943144353983975
0001,2,1,17,4,1,3.7070684999926,2,Sequential,4.55221942497883,0.943144353983975
0001,2,1,18,4,0,5.90800689999014,2,Sequential,4.55221942497883,0.943144353983975
0001,2,1,19,4,0,4.79722309997305,2,Sequential,4.55221942497883,0.943144353983975
0001,2,1,20,5,0,3.48155529994983,2,Sequential,4.55221942497883,0.943144353983975
0001,2,1,21,5,1,3.61847569991369,2,Sequential,4.55221942497883,0.943144353983975
0001,2,1,22,5,1,4.75269540003501,2,Sequential,4.55221942497883,0.943144353983975
0001,2,1,23,5,1,3.47543079999741,2,Sequential,4.55221942497883,0.943144353983975
0001,2,1,34,5,0,5.9278750999365,2,Sequential,4.55221942497883,0.943144353983975
0001,2,1,25,6,1,4.03724949993193,2,Sequential,4.55221942497883,0.943144353983975
0001,2,1,26,6,0,5.08992339996621,2,Sequential,4.55221942497883,0.943144353983975
0001,2,1,27,6,0,4.62859470001422,2,Sequential,4.55221942497883,0.943144353983975
0001,2,1,28,6,0,3.99894109996967,2,Sequential,4.55221942497883,0.943144353983975
0002,3,1,3,1,0,4.04856330004986,1,Sequential,5.219799544442342,1.4966009790614072
0002,3,1,4,1,1,5.52001850004308,1,Sequential,5.219799544442342,1.4966009790614072
0002,3,1,5,1,1,5.72254049999174,1,Sequential,5.219799544442342,1.4966009790614072
0002,3,1,7,2,1,5.47129940008745,1,Sequential,5.219799544442342,1.4966009790614072
0002,3,1,8,2,1,3.87483060010709,1,Sequential,5.219799544442342,1.4966009790614072
0002,3,1,9,2,1,5.06748289999086,1,Sequential,5.219799544442342,1.4966009790614072
0002,3,1,10,2,0,5.88158409995958,1,Sequential,5.219799544442342,1.4966009790614072
0002,3,1,11,3,1,4.91898069996387,1,Sequential,5.219799544442342,1.4966009790614072
0002,3,1,13,3,0,4.81365239992738,1,Sequential,5.219799544442342,1.4966009790614072
0002,3,1,14,3,1,5.54749900009483,1,Sequential,5.219799544442342,1.4966009790614072
0002,3,1,15,4,1,3.94267799996305,2,Sequential,5.219799544442342,1.4966009790614072
0002,3,1,16,4,0,5.80214659997728,2,Sequential,5.219799544442342,1.4966009790614072
0002,3,1,17,4,1,3.41352429997642,2,Sequential,5.219799544442342,1.4966009790614072
0002,3,1,18,4,1,4.82284120004624,2,Sequential,5.219799544442342,1.4966009790614072
0002,3,1,19,4,1,5.81622209993657,2,Sequential,5.219799544442342,1.4966009790614072
0002,3,1,20,5,1,6.8494733000407,2,Sequential,5.219799544442342,1.4966009790614072
0002,3,1,21,5,1,3.81117770005949,2,Sequential,5.219799544442342,1.4966009790614072
0002,3,1,22,5,1,3.63185269990936,2,Sequential,5.219799544442342,1.4966009790614072
0002,3,1,23,5,1,3.43003639997914,2,Sequential,5.219799544442342,1.4966009790614072
0002,3,1,34,5,1,3.78819709992968,2,Sequential,5.219799544442342,1.4966009790614072
0002,3,1,25,6,1,4.84276109992061,2,Sequential,5.219799544442342,1.4966009790614072
0002,3,1,26,6,0,3.84249480010476,2,Sequential,5.219799544442342,1.4966009790614072
0002,3,1,27,6,1,4.87832309992518,2,Sequential,5.219799544442342,1.4966009790614072
0002,3,1,28,6,0,5.38201679999474,2,Sequential,5.219799544442342,1.4966009790614072
0003,5,1,1,1,0,7.65807020000648,1,Sequential,5.390703314287488,1.47608192321719
0003,5,1,2,1,0,7.54496389999986,1,Sequential,5.390703314287488,1.47608192321719
0003,5,1,3,1,1,5.27044970006682,1,Sequential,5.390703314287488,1.47608192321719
0003,5,1,5,1,1,3.97713090002071,1,Sequential,5.390703314287488,1.47608192321719
0003,5,1,6,2,0,6.54963489994407,1,Sequential,5.390703314287488,1.47608192321719
0003,5,1,7,2,1,4.53840520000085,1,Sequential,5.390703314287488,1.47608192321719
0003,5,1,8,2,1,4.53079759993125,1,Sequential,5.390703314287488,1.47608192321719
0003,5,1,9,2,1,6.1575985000236,1,Sequential,5.390703314287488,1.47608192321719
0003,5,1,10,2,1,4.49325599998701,1,Sequential,5.390703314287488,1.47608192321719
0003,5,1,11,3,1,3.38358989998233,1,Sequential,5.390703314287488,1.47608192321719
0003,5,1,12,3,0,7.8242815999547,1,Sequential,5.390703314287488,1.47608192321719
0003,5,1,13,3,1,4.0819024000084,1,Sequential,5.390703314287488,1.47608192321719
0003,5,1,14,3,1,4.64998459990602,1,Sequential,5.390703314287488,1.47608192321719
0003,5,1,15,4,1,6.54605650005396,2,Sequential,5.390703314287488,1.47608192321719
0003,5,1,16,4,1,3.80049850000069,2,Sequential,5.390703314287488,1.47608192321719
0003,5,1,17,4,1,3.76704919990152,2,Sequential,5.390703314287488,1.47608192321719
0003,5,1,18,4,0,6.46627640002407,2,Sequential,5.390703314287488,1.47608192321719
0003,5,1,19,4,1,6.27341130003333,2,Sequential,5.390703314287488,1.47608192321719
0003,5,1,20,5,1,4.14503680006601,2,Sequential,5.390703314287488,1.47608192321719
0003,5,1,21,5,1,5.48432130005676,2,Sequential,5.390703314287488,1.47608192321719
0003,5,1,22,5,1,5.60178979998454,2,Sequential,5.390703314287488,1.47608192321719
0003,5,1,23,5,1,5.47688890004065,2,Sequential,5.390703314287488,1.47608192321719
0003,5,1,34,5,1,3.95781930000521,2,Sequential,5.390703314287488,1.47608192321719
0003,5,1,25,6,1,5.52416689996608,2,Sequential,5.390703314287488,1.47608192321719
0003,5,1,26,6,1,5.67613469995558,2,Sequential,5.390703314287488,1.47608192321719
0003,5,1,27,6,1,4.00343600008637,2,Sequential,5.390703314287488,1.47608192321719
0003,5,1,28,6,1,4.15810340002645,2,Sequential,5.390703314287488,1.47608192321719
0004,3,2,1,1,1,6.21381390000005,1,Non-sequential,5.366143053571423,1.4852542901852237
0004,3,2,3,1,1,5.36255549999998,1,Non-sequential,5.366143053571423,1.4852542901852237
0004,3,2,4,1,1,7.09701530000001,1,Non-sequential,5.366143053571423,1.4852542901852237
0004,3,2,5,1,1,3.88653670000002,1,Non-sequential,5.366143053571423,1.4852542901852237
0004,3,2,6,2,1,6.13256909999996,1,Non-sequential,5.366143053571423,1.4852542901852237
0004,3,2,7,2,1,7.47480330000002,1,Non-sequential,5.366143053571423,1.4852542901852237
0004,3,2,8,2,1,5.71545930000002,1,Non-sequential,5.366143053571423,1.4852542901852237
0004,3,2,9,2,0,3.91091689999996,1,Non-sequential,5.366143053571423,1.4852542901852237
0004,3,2,10,2,0,5.3110825,1,Non-sequential,5.366143053571423,1.4852542901852237
0004,3,2,11,3,1,5.78886569999997,1,Non-sequential,5.366143053571423,1.4852542901852237
0004,3,2,12,3,1,5.33658289999994,1,Non-sequential,5.366143053571423,1.4852542901852237
0004,3,2,13,3,1,4.18385720000003,1,Non-sequential,5.366143053571423,1.4852542901852237
0004,3,2,14,3,0,5.52457979999997,1,Non-sequential,5.366143053571423,1.4852542901852237
0004,3,2,15,4,0,4.77878880000003,2,Non-sequential,5.366143053571423,1.4852542901852237
0004,3,2,16,4,1,3.64571020000005,2,Non-sequential,5.366143053571423,1.4852542901852237
0004,3,2,17,4,1,3.74095,2,Non-sequential,5.366143053571423,1.4852542901852237
0004,3,2,18,4,0,6.6194524,2,Non-sequential,5.366143053571423,1.4852542901852237
0004,3,2,19,4,0,5.77165339999999,2,Non-sequential,5.366143053571423,1.4852542901852237
0004,3,2,20,5,1,4.97410109999998,2,Non-sequential,5.366143053571423,1.4852542901852237
0004,3,2,21,5,1,5.68062470000007,2,Non-sequential,5.366143053571423,1.4852542901852237
0004,3,2,171,5,1,3.49745580000013,2,Non-sequential,5.366143053571423,1.4852542901852237
0004,3,2,23,5,0,4.27439639999989,2,Non-sequential,5.366143053571423,1.4852542901852237
0004,3,2,180,5,1,4.56848560000003,2,Non-sequential,5.366143053571423,1.4852542901852237
0004,3,2,189,6,1,8.00927200000001,2,Non-sequential,5.366143053571423,1.4852542901852237
0004,3,2,192,6,1,4.66249299999981,2,Non-sequential,5.366143053571423,1.4852542901852237
0004,3,2,27,6,1,4.52683389999993,2,Non-sequential,5.366143053571423,1.4852542901852237
0004,3,2,28,6,1,3.58509359999994,2,Non-sequential,5.366143053571423,1.4852542901852237
0005,4,2,1,1,0,6.18662649998441,1,Non-sequential,5.492531865212621,1.3924740989485105
0005,4,2,5,1,1,4.0138297000085,1,Non-sequential,5.492531865212621,1.3924740989485105
0005,4,2,6,2,0,4.29216309997719,1,Non-sequential,5.492531865212621,1.3924740989485105
0005,4,2,7,2,1,5.25602540001273,1,Non-sequential,5.492531865212621,1.3924740989485105
0005,4,2,8,2,1,6.09486270003254,1,Non-sequential,5.492531865212621,1.3924740989485105
0005,4,2,9,2,0,4.43673020001734,1,Non-sequential,5.492531865212621,1.3924740989485105
0005,4,2,10,2,1,4.02434699999867,1,Non-sequential,5.492531865212621,1.3924740989485105
0005,4,2,11,3,0,6.3649873000104,1,Non-sequential,5.492531865212621,1.3924740989485105
0005,4,2,12,3,1,4.62276840000413,1,Non-sequential,5.492531865212621,1.3924740989485105
0005,4,2,14,3,0,4.21491689997492,1,Non-sequential,5.492531865212621,1.3924740989485105
0005,4,2,15,4,0,5.28800480003702,2,Non-sequential,5.492531865212621,1.3924740989485105
0005,4,2,16,4,1,4.58954580000136,2,Non-sequential,5.492531865212621,1.3924740989485105
0005,4,2,17,4,1,6.42141479998827,2,Non-sequential,5.492531865212621,1.3924740989485105
0005,4,2,18,4,1,6.02498889999697,2,Non-sequential,5.492531865212621,1.3924740989485105
0005,4,2,19,4,1,4.82905369997025,2,Non-sequential,5.492531865212621,1.3924740989485105
0005,4,2,20,5,1,6.93081130000064,2,Non-sequential,5.492531865212621,1.3924740989485105
0005,4,2,171,5,1,4.46080830000574,2,Non-sequential,5.492531865212621,1.3924740989485105
0005,4,2,23,5,0,5.74172309995629,2,Non-sequential,5.492531865212621,1.3924740989485105
0005,4,2,180,5,1,5.56431009998778,2,Non-sequential,5.492531865212621,1.3924740989485105
0005,4,2,189,6,1,7.95142549998127,2,Non-sequential,5.492531865212621,1.3924740989485105
0005,4,2,27,6,1,4.81942149996758,2,Non-sequential,5.492531865212621,1.3924740989485105
0005,4,2,28,6,1,4.32760419999249,2,Non-sequential,5.492531865212621,1.3924740989485105
0006,5,2,3,1,0,6.36792370001785,1,Non-sequential,5.5717544105320584,1.6443391302264696
0006,5,2,4,1,0,8.34477889997652,1,Non-sequential,5.5717544105320584,1.6443391302264696
0006,5,2,5,1,1,5.31037090002792,1,Non-sequential,5.5717544105320584,1.6443391302264696
0006,5,2,6,2,0,5.12788980000187,1,Non-sequential,5.5717544105320584,1.6443391302264696
0006,5,2,8,2,1,4.16401390003739,1,Non-sequential,5.5717544105320584,1.6443391302264696
0006,5,2,9,2,0,3.67630629998166,1,Non-sequential,5.5717544105320584,1.6443391302264696
0006,5,2,12,3,1,5.34468169999309,1,Non-sequential,5.5717544105320584,1.6443391302264696
0006,5,2,13,3,1,4.24330810003448,1,Non-sequential,5.5717544105320584,1.6443391302264696
0006,5,2,14,3,0,5.19108730001608,1,Non-sequential,5.5717544105320584,1.6443391302264696
0006,5,2,15,4,0,7.4336653999635,2,Non-sequential,5.5717544105320584,1.6443391302264696
0006,5,2,16,4,1,6.36312190000899,2,Non-sequential,5.5717544105320584,1.6443391302264696
0006,5,2,17,4,1,6.95681320002768,2,Non-sequential,5.5717544105320584,1.6443391302264696
0006,5,2,18,4,0,4.46547819999978,2,Non-sequential,5.5717544105320584,1.6443391302264696
0006,5,2,19,4,1,4.13261500000954,2,Non-sequential,5.5717544105320584,1.6443391302264696
0006,5,2,171,5,1,3.35592060000636,2,Non-sequential,5.5717544105320584,1.6443391302264696
0006,5,2,23,5,0,4.0176277999999,2,Non-sequential,5.5717544105320584,1.6443391302264696
0006,5,2,180,5,1,8.84784609999042,2,Non-sequential,5.5717544105320584,1.6443391302264696
0006,5,2,27,6,1,7.93103789997986,2,Non-sequential,5.5717544105320584,1.6443391302264696
0006,5,2,28,6,0,4.58884710003622,2,Non-sequential,5.5717544105320584,1.6443391302264696
0007,6,2,2,1,1,4.25507239997387,1,Non-sequential,5.566400667994749,2.177098460389153
0007,6,2,3,1,0,7.83221169997705,1,Non-sequential,5.566400667994749,2.177098460389153
0007,6,2,4,1,0,7.80497239995748,1,Non-sequential,5.566400667994749,2.177098460389153
0007,6,2,5,1,1,3.95743089995813,1,Non-sequential,5.566400667994749,2.177098460389153
0007,6,2,6,2,0,4.56470950000221,1,Non-sequential,5.566400667994749,2.177098460389153
0007,6,2,7,2,0,3.92242229997646,1,Non-sequential,5.566400667994749,2.177098460389153
0007,6,2,8,2,1,4.18918389995815,1,Non-sequential,5.566400667994749,2.177098460389153
0007,6,2,9,2,0,3.28418379998766,1,Non-sequential,5.566400667994749,2.177098460389153
0007,6,2,10,2,1,5.24544620001689,1,Non-sequential,5.566400667994749,2.177098460389153
0007,6,2,11,3,0,7.43963350000558,1,Non-sequential,5.566400667994749,2.177098460389153
0007,6,2,12,3,1,8.21476160001475,1,Non-sequential,5.566400667994749,2.177098460389153
0007,6,2,13,3,1,3.26581640000222,1,Non-sequential,5.566400667994749,2.177098460389153
0007,6,2,14,3,0,4.17339109996101,1,Non-sequential,5.566400667994749,2.177098460389153
0007,6,2,15,4,0,9.16483880003216,2,Non-sequential,5.566400667994749,2.177098460389153
0007,6,2,16,4,1,5.04289340000832,2,Non-sequential,5.566400667994749,2.177098460389153
0007,6,2,17,4,0,3.42128880001837,2,Non-sequential,5.566400667994749,2.177098460389153
0007,6,2,19,4,1,6.44186500000069,2,Non-sequential,5.566400667994749,2.177098460389153
0007,6,2,20,5,1,9.43691709998529,2,Non-sequential,5.566400667994749,2.177098460389153
0007,6,2,21,5,1,5.98222339997301,2,Non-sequential,5.566400667994749,2.177098460389153
0007,6,2,171,5,1,3.23765470000217,2,Non-sequential,5.566400667994749,2.177098460389153
0007,6,2,23,5,0,3.26566189998994,2,Non-sequential,5.566400667994749,2.177098460389153
0007,6,2,180,5,1,3.5663840000052,2,Non-sequential,5.566400667994749,2.177098460389153
0007,6,2,192,6,1,3.87599900003988,2,Non-sequential,5.566400667994749,2.177098460389153
0007,6,2,27,6,1,9.46960180002498,2,Non-sequential,5.566400667994749,2.177098460389153
0007,6,2,28,6,0,8.10545309999725,2,Non-sequential,5.566400667994749,2.177098460389153
0008,6,1,2,1,1,2.53713850001805,1,Sequential,4.540338707142967,1.1582040842616361
0008,6,1,3,1,1,5.31606340000872,1,Sequential,4.540338707142967,1.1582040842616361
0008,6,1,4,1,1,6.25375760000315,1,Sequential,4.540338707142967,1.1582040842616361
0008,6,1,5,1,1,3.82803090001107,1,Sequential,4.540338707142967,1.1582040842616361
0008,6,1,6,2,0,3.70102169999154,1,Sequential,4.540338707142967,1.1582040842616361
0008,6,1,7,2,1,5.85067839999101,1,Sequential,4.540338707142967,1.1582040842616361
0008,6,1,8,2,1,4.47052750000148,1,Sequential,4.540338707142967,1.1582040842616361
0008,6,1,9,2,1,3.99630349999643,1,Sequential,4.540338707142967,1.1582040842616361
0008,6,1,10,2,0,5.41429970000172,1,Sequential,4.540338707142967,1.1582040842616361
0008,6,1,11,3,1,4.23820600000909,1,Sequential,4.540338707142967,1.1582040842616361
0008,6,1,12,3,1,4.88502539999899,1,Sequential,4.540338707142967,1.1582040842616361
0008,6,1,13,3,1,4.52360029998817,1,Sequential,4.540338707142967,1.1582040842616361
0008,6,1,14,3,1,4.03907339999569,1,Sequential,4.540338707142967,1.1582040842616361
0008,6,1,15,4,1,4.24009030000889,2,Sequential,4.540338707142967,1.1582040842616361
0008,6,1,16,4,1,3.98265219997847,2,Sequential,4.540338707142967,1.1582040842616361
0008,6,1,17,4,1,3.51717819998157,2,Sequential,4.540338707142967,1.1582040842616361
0008,6,1,18,4,1,4.83362930000294,2,Sequential,4.540338707142967,1.1582040842616361
0008,6,1,19,4,1,3.63617370001157,2,Sequential,4.540338707142967,1.1582040842616361
0008,6,1,21,5,1,3.34029970000847,2,Sequential,4.540338707142967,1.1582040842616361
0008,6,1,22,5,1,4.03243409999413,2,Sequential,4.540338707142967,1.1582040842616361
0008,6,1,23,5,1,3.54037390000303,2,Sequential,4.540338707142967,1.1582040842616361
0008,6,1,34,5,1,4.65296239999589,2,Sequential,4.540338707142967,1.1582040842616361
0008,6,1,25,6,1,4.40153760000248,2,Sequential,4.540338707142967,1.1582040842616361
0008,6,1,26,6,1,5.60025659998064,2,Sequential,4.540338707142967,1.1582040842616361
0008,6,1,27,6,1,3.63272809999762,2,Sequential,4.540338707142967,1.1582040842616361
0008,6,1,28,6,1,3.73045260002255,2,Sequential,4.540338707142967,1.1582040842616361
0009,7,2,1,1,0,6.26185079995776,1,Non-sequential,6.068867457685814,1.7077972699353492
0009,7,2,2,1,0,7.70107000001008,1,Non-sequential,6.068867457685814,1.7077972699353492
0009,7,2,3,1,0,5.31102159997681,1,Non-sequential,6.068867457685814,1.7077972699353492
0009,7,2,4,1,0,7.47100069996668,1,Non-sequential,6.068867457685814,1.7077972699353492
0009,7,2,5,1,1,3.8805806999444,1,Non-sequential,6.068867457685814,1.7077972699353492
0009,7,2,6,2,1,5.50632320001023,1,Non-sequential,6.068867457685814,1.7077972699353492
0009,7,2,7,2,1,6.97144210000988,1,Non-sequential,6.068867457685814,1.7077972699353492
0009,7,2,8,2,1,4.22093339997809,1,Non-sequential,6.068867457685814,1.7077972699353492
0009,7,2,9,2,0,4.8372860000236,1,Non-sequential,6.068867457685814,1.7077972699353492
0009,7,2,10,2,1,5.18231549998745,1,Non-sequential,6.068867457685814,1.7077972699353492
0009,7,2,11,3,0,8.34757410001475,1,Non-sequential,6.068867457685814,1.7077972699353492
0009,7,2,12,3,1,5.16371620004065,1,Non-sequential,6.068867457685814,1.7077972699353492
0009,7,2,13,3,1,4.16750439995667,1,Non-sequential,6.068867457685814,1.7077972699353492
0009,7,2,16,4,1,5.10877459996846,2,Non-sequential,6.068867457685814,1.7077972699353492
0009,7,2,17,4,1,5.28123490000144,2,Non-sequential,6.068867457685814,1.7077972699353492
0009,7,2,18,4,0,5.66434119996848,2,Non-sequential,6.068867457685814,1.7077972699353492
0009,7,2,19,4,0,6.23158840002725,2,Non-sequential,6.068867457685814,1.7077972699353492
0009,7,2,20,5,1,6.43765959999291,2,Non-sequential,6.068867457685814,1.7077972699353492
0009,7,2,171,5,1,4.1017567999661,2,Non-sequential,6.068867457685814,1.7077972699353492
0009,7,2,23,5,0,4.61716590001015,2,Non-sequential,6.068867457685814,1.7077972699353492
0009,7,2,180,5,1,4.84516000002623,2,Non-sequential,6.068867457685814,1.7077972699353492
0009,7,2,189,6,1,5.52483619999839,2,Non-sequential,6.068867457685814,1.7077972699353492
0009,7,2,192,6,1,9.38120930001605,2,Non-sequential,6.068867457685814,1.7077972699353492
0009,7,2,28,6,1,6.05507659999421,2,Non-sequential,6.068867457685814,1.7077972699353492
0010,1,2,1,1,1,8.06054109998513,1,Non-sequential,5.532312496157829,1.5140678957192646
0010,1,2,2,1,1,5.82407349999994,1,Non-sequential,5.532312496157829,1.5140678957192646
0010,1,2,3,1,0,3.82008780003525,1,Non-sequential,5.532312496157829,1.5140678957192646
0010,1,2,4,1,0,3.911802800023,1,Non-sequential,5.532312496157829,1.5140678957192646
0010,1,2,5,1,0,3.79433679999784,1,Non-sequential,5.532312496157829,1.5140678957192646
0010,1,2,6,2,1,5.47071829997003,1,Non-sequential,5.532312496157829,1.5140678957192646
0010,1,2,7,2,1,7.96105679997709,1,Non-sequential,5.532312496157829,1.5140678957192646
0010,1,2,8,2,1,6.62872709997464,1,Non-sequential,5.532312496157829,1.5140678957192646
0010,1,2,9,2,0,4.29275829996914,1,Non-sequential,5.532312496157829,1.5140678957192646
0010,1,2,10,2,1,4.6237770000007,1,Non-sequential,5.532312496157829,1.5140678957192646
0010,1,2,11,3,0,4.40845360001549,1,Non-sequential,5.532312496157829,1.5140678957192646
0010,1,2,13,3,0,5.98076260002563,1,Non-sequential,5.532312496157829,1.5140678957192646
0010,1,2,14,3,0,6.25831010000547,1,Non-sequential,5.532312496157829,1.5140678957192646
0010,1,2,15,4,0,5.49253450002288,2,Non-sequential,5.532312496157829,1.5140678957192646
0010,1,2,16,4,0,4.26382150000427,2,Non-sequential,5.532312496157829,1.5140678957192646
0010,1,2,17,4,1,6.23731019999832,2,Non-sequential,5.532312496157829,1.5140678957192646
0010,1,2,18,4,0,5.93286090000765,2,Non-sequential,5.532312496157829,1.5140678957192646
0010,1,2,19,4,1,3.46554119995562,2,Non-sequential,5.532312496157829,1.5140678957192646
0010,1,2,21,5,1,4.56322979996912,2,Non-sequential,5.532312496157829,1.5140678957192646
0010,1,2,171,5,1,3.93530270003248,2,Non-sequential,5.532312496157829,1.5140678957192646
0010,1,2,23,5,0,6.4394164000405,2,Non-sequential,5.532312496157829,1.5140678957192646
0010,1,2,180,5,0,7.91869890003,2,Non-sequential,5.532312496157829,1.5140678957192646
0010,1,2,189,6,0,5.00689120002789,2,Non-sequential,5.532312496157829,1.5140678957192646
0010,1,2,27,6,0,4.75759360002121,2,Non-sequential,5.532312496157829,1.5140678957192646
0010,1,2,28,6,0,5.44961609999882,2,Non-sequential,5.532312496157829,1.5140678957192646
0011,2,2,1,1,0,8.17377359996317,1,Non-sequential,5.772565787495599,1.891088334139771
0011,2,2,2,1,0,7.08362260001013,1,Non-sequential,5.772565787495599,1.891088334139771
0011,2,2,3,1,1,4.27655650000088,1,Non-sequential,5.772565787495599,1.891088334139771
0011,2,2,4,1,1,6.34666189999552,1,Non-sequential,5.772565787495599,1.891088334139771
0011,2,2,5,1,1,3.7753662999603,1,Non-sequential,5.772565787495599,1.891088334139771
0011,2,2,6,2,0,5.7860742000048,1,Non-sequential,5.772565787495599,1.891088334139771
0011,2,2,7,2,1,3.54126510000788,1,Non-sequential,5.772565787495599,1.891088334139771
0011,2,2,8,2,1,4.19702389999293,1,Non-sequential,5.772565787495599,1.891088334139771
0011,2,2,9,2,0,3.87437289999798,1,Non-sequential,5.772565787495599,1.891088334139771
0011,2,2,10,2,0,4.91667690000031,1,Non-sequential,5.772565787495599,1.891088334139771
0011,2,2,11,3,0,4.72953019995475,1,Non-sequential,5.772565787495599,1.891088334139771
0011,2,2,13,3,1,8.81336410000222,1,Non-sequential,5.772565787495599,1.891088334139771
0011,2,2,14,3,0,8.48085619998164,1,Non-sequential,5.772565787495599,1.891088334139771
0011,2,2,15,4,0,9.08231249998789,2,Non-sequential,5.772565787495599,1.891088334139771
0011,2,2,16,4,1,5.27238789998228,2,Non-sequential,5.772565787495599,1.891088334139771
0011,2,2,18,4,0,7.87167209998006,2,Non-sequential,5.772565787495599,1.891088334139771
0011,2,2,19,4,1,4.30339299998013,2,Non-sequential,5.772565787495599,1.891088334139771
0011,2,2,21,5,1,5.0121340000187,2,Non-sequential,5.772565787495599,1.891088334139771
0011,2,2,171,5,1,4.16723350004759,2,Non-sequential,5.772565787495599,1.891088334139771
0011,2,2,23,5,0,3.29743610002333,2,Non-sequential,5.772565787495599,1.891088334139771
0011,2,2,180,5,0,4.83765639999183,2,Non-sequential,5.772565787495599,1.891088334139771
0011,2,2,189,6,1,9.24231130001135,2,Non-sequential,5.772565787495599,1.891088334139771
0011,2,2,192,6,1,6.26196449995041,2,Non-sequential,5.772565787495599,1.891088334139771
0011,2,2,28,6,1,5.19793320004828,2,Non-sequential,5.772565787495599,1.891088334139771
0012,7,1,3,1,0,3.39513890002854,1,Sequential,3.844906550006792,0.9770437060310818
0012,7,1,4,1,1,4.85847530001774,1,Sequential,3.844906550006792,0.9770437060310818
0012,7,1,5,1,1,3.01153339998564,1,Sequential,3.844906550006792,0.9770437060310818
0012,7,1,6,2,1,3.69407029997092,1,Sequential,3.844906550006792,0.9770437060310818
0012,7,1,7,2,1,3.85873690003064,1,Sequential,3.844906550006792,0.9770437060310818
0012,7,1,8,2,1,4.19737920002081,1,Sequential,3.844906550006792,0.9770437060310818
0012,7,1,9,2,1,3.30872760002967,1,Sequential,3.844906550006792,0.9770437060310818
0012,7,1,10,2,1,2.84688570001163,1,Sequential,3.844906550006792,0.9770437060310818
