participant,photo_set,trial,block,distance,accuracy,RT,meanrt,stdev
112,1,1,1,3,1,1.8679546000003,1.7650955716666277,1.0851203206300195
112,1,2,1,1,1,3.46778190000077,1.7650955716666277,1.0851203206300195
112,1,3,1,2,1,1.06764029999977,1.7650955716666277,1.0851203206300195
112,1,4,1,2,0,1.91784770000049,1.7650955716666277,1.0851203206300195
112,1,5,1,1,0,1.41807639999934,1.7650955716666277,1.0851203206300195
112,1,6,1,2,1,1.13407449999977,1.7650955716666277,1.0851203206300195
112,1,7,1,3,1,1.18454580000071,1.7650955716666277,1.0851203206300195
112,1,8,1,1,0,1.35128430000077,1.7650955716666277,1.0851203206300195
112,1,9,1,2,1,0.967672400000083,1.7650955716666277,1.0851203206300195
112,1,10,1,1,1,1.36794829999963,1.7650955716666277,1.0851203206300195
112,1,11,1,3,1,1.66785909999999,1.7650955716666277,1.0851203206300195
112,1,12,1,2,1,0.983912899999268,1.7650955716666277,1.0851203206300195
112,1,13,1,1,0,1.8172813000001,1.7650955716666277,1.0851203206300195
112,1,14,1,2,1,1.28423209999892,1.7650955716666277,1.0851203206300195
112,1,15,1,3,1,1.13398430000052,1.7650955716666277,1.0851203206300195
112,1,16,1,3,1,1.3679321999989,1.7650955716666277,1.0851203206300195
112,1,17,1,1,1,1.81781430000046,1.7650955716666277,1.0851203206300195
112,1,18,1,3,1,1.23444689999997,1.7650955716666277,1.0851203206300195
112,1,19,1,3,1,1.78444149999996,1.7650955716666277,1.0851203206300195
112,1,21,2,2,1,1.83484130000033,1.7650955716666277,1.0851203206300195
112,1,22,2,3,1,2.8015747999998,1.7650955716666277,1.0851203206300195
112,1,23,2,1,0,2.93470329999946,1.7650955716666277,1.0851203206300195
112,1,24,2,1,1,1.28412189999835,1.7650955716666277,1.0851203206300195
112,1,25,2,2,1,1.38450300000113,1.7650955716666277,1.0851203206300195
112,1,26,2,3,1,0.867540100000042,1.7650955716666277,1.0851203206300195
112,1,27,2,3,1,0.917603199999576,1.7650955716666277,1.0851203206300195
112,1,28,2,2,1,1.81779710000046,1.7650955716666277,1.0851203206300195
112,1,29,2,1,0,1.45079279999845,1.7650955716666277,1.0851203206300195
112,1,30,2,3,1,1.48452369999904,1.7650955716666277,1.0851203206300195
112,1,31,2,2,1,2.2003724999995,1.7650955716666277,1.0851203206300195
112,1,32,2,3,1,1.18430460000127,1.7650955716666277,1.0851203206300195
112,1,33,2,1,1,1.31765500000074,1.7650955716666277,1.0851203206300195
112,1,34,2,2,1,1.01807759999974,1.7650955716666277,1.0851203206300195
112,1,35,2,1,0,1.60108290000062,1.7650955716666277,1.0851203206300195
112,1,36,2,3,1,1.00096549999944,1.7650955716666277,1.0851203206300195
112,1,37,2,2,1,0.585726600000271,1.7650955716666277,1.0851203206300195
112,1,38,2,3,0,0.667330800000855,1.7650955716666277,1.0851203206300195
112,1,39,2,1,1,1.76775349999843,1.7650955716666277,1.0851203206300195
112,1,40,2,2,1,1.45368940000117,1.7650955716666277,1.0851203206300195
112,1,41,3,3,1,2.55135060000066,1.7650955716666277,1.0851203206300195
112,1,42,3,1,1,0.90062399999988,1.7650955716666277,1.0851203206300195
112,1,43,3,2,1,1.36743669999851,1.7650955716666277,1.0851203206300195
112,1,44,3,2,1,0.834259799999927,1.7650955716666277,1.0851203206300195
112,1,45,3,1,1,1.68452419999994,1.7650955716666277,1.0851203206300195
112,1,46,3,3,1,1.0172145000015,1.7650955716666277,1.0851203206300195
112,1,47,3,3,1,1.30025850000129,1.7650955716666277,1.0851203206300195
112,1,48,3,1,1,3.118359099999,1.7650955716666277,1.0851203206300195
112,1,49,3,2,1,0.901117199999135,1.7650955716666277,1.0851203206300195
112,1,50,3,2,0,3.8680817000004,1.7650955716666277,1.0851203206300195
112,1,51,3,1,1,1.53446950000034,1.7650955716666277,1.0851203206300195
112,1,52,3,1,1,1.60188620000008,1.7650955716666277,1.0851203206300195
112,1,53,3,2,1,3.56849750000038,1.7650955716666277,1.0851203206300195
112,1,54,3,3,1,1.62033400000109,1.7650955716666277,1.0851203206300195
112,1,55,3,1,0,2.43427390000033,1.7650955716666277,1.0851203206300195
112,1,56,3,2,1,0.917813800000658,1.7650955716666277,1.0851203206300195
112,1,57,3,1,1,1.41802040000039,1.7650955716666277,1.0851203206300195
112,1,58,3,2,1,1.61747030000151,1.7650955716666277,1.0851203206300195
112,1,59,3,3,1,1.63502700000026,1.7650955716666277,1.0851203206300195
112,1,60,3,3,1,1.5509576000004,1.7650955716666277,1.0851203206300195
112,1,61,4,3,1,1.41738450000048,1.7650955716666277,1.0851203206300195
112,1,62,4,1,1,2.20149049999964,1.7650955716666277,1.0851203206300195
112,1,63,4,2,1,0.900881799998388,1.7650955716666277,1.0851203206300195
112,1,64,4,2,0,1.46766239999852,1.7650955716666277,1.0851203206300195
112,1,65,4,1,1,0.935220600000321,1.7650955716666277,1.0851203206300195
112,1,66,4,2,1,0.93431849999979,1.7650955716666277,1.0851203206300195
112,1,67,4,3,1,3.06808959999944,1.7650955716666277,1.0851203206300195
112,1,68,4,1,1,2.76784059999954,1.7650955716666277,1.0851203206300195
112,1,69,4,2,1,1.20077129999845,1.7650955716666277,1.0851203206300195
112,1,70,4,1,1,2.46766519999983,1.7650955716666277,1.0851203206300195
112,1,71,4,3,1,0.983884799999942,1.7650955716666277,1.0851203206300195
112,1,72,4,2,1,0.834307900000567,1.7650955716666277,1.0851203206300195
112,1,73,4,1,1,2.06783290000021,1.7650955716666277,1.0851203206300195
112,1,74,4,2,0,1.96781360000023,1.7650955716666277,1.0851203206300195
112,1,75,4,3,1,1.21886160000031,1.7650955716666277,1.0851203206300195
112,1,76,4,3,1,2.85153079999873,1.7650955716666277,1.0851203206300195
112,1,77,4,1,1,1.4175823000005,1.7650955716666277,1.0851203206300195
112,1,78,4,3,1,0.985289000000194,1.7650955716666277,1.0851203206300195
112,1,79,4,3,1,1.85116639999978,1.7650955716666277,1.0851203206300195
112,1,80,4,1,1,1.18437430000085,1.7650955716666277,1.0851203206300195
112,1,81,5,2,1,2.28465920000053,1.7650955716666277,1.0851203206300195
112,1,82,5,3,1,3.4694156000005,1.7650955716666277,1.0851203206300195
112,1,84,5,1,1,0.95086529999935,1.7650955716666277,1.0851203206300195
112,1,85,5,2,1,0.884560500000589,1.7650955716666277,1.0851203206300195
112,1,86,5,3,1,2.65344230000119,1.7650955716666277,1.0851203206300195
112,1,87,5,3,1,1.10007009999936,1.7650955716666277,1.0851203206300195
112,1,88,5,2,1,1.1173832000004,1.7650955716666277,1.0851203206300195
112,1,89,5,1,1,1.76813370000127,1.7650955716666277,1.0851203206300195
112,1,90,5,3,1,1.23477079999975,1.7650955716666277,1.0851203206300195
112,1,91,5,2,0,2.9177049000009,1.7650955716666277,1.0851203206300195
112,1,92,5,3,1,1.21773199999916,1.7650955716666277,1.0851203206300195
112,1,93,5,1,0,3.8178910000006,1.7650955716666277,1.0851203206300195
112,1,94,5,2,1,3.28667809999934,1.7650955716666277,1.0851203206300195
112,1,95,5,1,0,2.66773200000171,1.7650955716666277,1.0851203206300195
112,1,96,5,3,1,1.01722619999964,1.7650955716666277,1.0851203206300195
112,1,97,5,2,1,1.31965599999967,1.7650955716666277,1.0851203206300195
112,1,98,5,3,1,1.46752220000053,1.7650955716666277,1.0851203206300195
112,1,99,5,1,0,1.76762889999918,1.7650955716666277,1.0851203206300195
112,1,100,5,2,1,1.30061959999875,1.7650955716666277,1.0851203206300195
112,1,101,6,3,1,2.93460030000097,1.7650955716666277,1.0851203206300195
112,1,103,6,2,1,1.01805669999885,1.7650955716666277,1.0851203206300195
112,1,104,6,2,1,1.73404800000026,1.7650955716666277,1.0851203206300195
112,1,105,6,1,0,1.40112140000019,1.7650955716666277,1.0851203206300195
112,1,106,6,3,1,1.46757419999994,1.7650955716666277,1.0851203206300195
112,1,107,6,3,1,0.867504699999699,1.7650955716666277,1.0851203206300195
112,1,108,6,1,0,0.784466799999791,1.7650955716666277,1.0851203206300195
112,1,109,6,2,1,1.13423999999941,1.7650955716666277,1.0851203206300195
112,1,110,6,2,0,1.88402549999955,1.7650955716666277,1.0851203206300195
112,1,111,6,1,0,0.967688099999577,1.7650955716666277,1.0851203206300195
112,1,112,6,1,0,1.23389999999927,1.7650955716666277,1.0851203206300195
112,1,113,6,2,0,3.71800669999902,1.7650955716666277,1.0851203206300195
112,1,114,6,3,0,3.01760370000011,1.7650955716666277,1.0851203206300195
112,1,115,6,1,1,1.13384849999966,1.7650955716666277,1.0851203206300195
112,1,116,6,2,1,1.31761509999887,1.7650955716666277,1.0851203206300195
112,1,117,6,1,1,0.95032799999899,1.7650955716666277,1.0851203206300195
112,1,118,6,2,1,1.91759249999996,1.7650955716666277,1.0851203206300195
112,1,119,6,3,1,0.734045899998819,1.7650955716666277,1.0851203206300195
112,1,120,6,3,1,1.26735850000114,1.7650955716666277,1.0851203206300195
113,1,3,1,2,1,1.28441029996611,1.2130637683284777,0.3441018387904163
113,1,4,1,2,1,1.61772049998399,1.2130637683284777,0.3441018387904163
113,1,5,1,1,0,1.63565379998181,1.2130637683284777,0.3441018387904163
113,1,6,1,2,1,1.3345616000006,1.2130637683284777,0.3441018387904163
113,1,7,1,3,1,1.16748329997063,1.2130637683284777,0.3441018387904163
113,1,8,1,1,1,1.20114409999223,1.2130637683284777,0.3441018387904163
113,1,9,1,2,1,1.15083860000595,1.2130637683284777,0.3441018387904163
113,1,10,1,1,0,0.98384659999283,1.2130637683284777,0.3441018387904163
113,1,11,1,3,1,0.867611400026362,1.2130637683284777,0.3441018387904163
113,1,12,1,2,1,0.817652699945029,1.2130637683284777,0.3441018387904163
113,1,13,1,1,1,0.767558699997608,1.2130637683284777,0.3441018387904163
113,1,14,1,2,1,1.48444410000229,1.2130637683284777,0.3441018387904163
113,1,15,1,3,1,0.900800700008404,1.2130637683284777,0.3441018387904163
113,1,16,1,3,1,1.18431460001739,1.2130637683284777,0.3441018387904163
113,1,17,1,1,0,0.800806000013836,1.2130637683284777,0.3441018387904163
113,1,18,1,3,1,1.90092340001138,1.2130637683284777,0.3441018387904163
113,1,19,1,3,1,1.18556640000315,1.2130637683284777,0.3441018387904163
113,1,21,2,2,1,1.86732740001753,1.2130637683284777,0.3441018387904163
113,1,22,2,3,1,1.08593209995888,1.2130637683284777,0.3441018387904163
113,1,23,2,1,1,1.18438869999954,1.2130637683284777,0.3441018387904163
113,1,24,2,1,0,1.11756039998727,1.2130637683284777,0.3441018387904163
113,1,25,2,2,1,1.61726089997683,1.2130637683284777,0.3441018387904163
113,1,26,2,3,1,1.08517209999263,1.2130637683284777,0.3441018387904163
113,1,27,2,3,1,1.33406280004419,1.2130637683284777,0.3441018387904163
113,1,29,2,1,1,1.71743179997429,1.2130637683284777,0.3441018387904163
113,1,30,2,3,1,1.11749249999411,1.2130637683284777,0.3441018387904163
113,1,31,2,2,1,1.3849395000143,1.2130637683284777,0.3441018387904163
113,1,32,2,3,1,1.15065500000492,1.2130637683284777,0.3441018387904163
113,1,33,2,1,0,1.01829620002536,1.2130637683284777,0.3441018387904163
113,1,34,2,2,1,0.884257600002456,1.2130637683284777,0.3441018387904163
113,1,35,2,1,1,0.733989100030158,1.2130637683284777,0.3441018387904163
113,1,36,2,3,1,0.900832699961029,1.2130637683284777,0.3441018387904163
113,1,37,2,2,1,1.38410609995481,1.2130637683284777,0.3441018387904163
113,1,38,2,3,1,1.25119540002197,1.2130637683284777,0.3441018387904163
113,1,39,2,1,1,1.28590870002517,1.2130637683284777,0.3441018387904163
113,1,40,2,2,1,1.26765109994449,1.2130637683284777,0.3441018387904163
113,1,41,3,3,1,1.61738220002735,1.2130637683284777,0.3441018387904163
113,1,42,3,1,0,1.28420559997903,1.2130637683284777,0.3441018387904163
113,1,43,3,2,1,1.28420110000297,1.2130637683284777,0.3441018387904163
113,1,44,3,2,1,1.43412920000264,1.2130637683284777,0.3441018387904163
113,1,45,3,1,1,1.85086299997056,1.2130637683284777,0.3441018387904163
113,1,46,3,3,1,1.61749649996636,1.2130637683284777,0.3441018387904163
113,1,47,3,3,1,1.00100859999657,1.2130637683284777,0.3441018387904163
113,1,48,3,1,0,1.30056679999689,1.2130637683284777,0.3441018387904163
113,1,49,3,2,1,1.23406579997391,1.2130637683284777,0.3441018387904163
113,1,50,3,2,1,1.16752640000777,1.2130637683284777,0.3441018387904163
113,1,51,3,1,1,1.30067959998269,1.2130637683284777,0.3441018387904163
113,1,52,3,1,0,1.43412759999046,1.2130637683284777,0.3441018387904163
113,1,53,3,2,1,1.06763150001643,1.2130637683284777,0.3441018387904163
113,1,54,3,3,1,1.03409770003054,1.2130637683284777,0.3441018387904163
113,1,56,3,2,1,1.31750080001075,1.2130637683284777,0.3441018387904163
113,1,57,3,1,0,1.33416939998278,1.2130637683284777,0.3441018387904163
113,1,58,3,2,1,1.15078229998471,1.2130637683284777,0.3441018387904163
113,1,59,3,3,1,1.03509000001941,1.2130637683284777,0.3441018387904163
113,1,60,3,3,1,0.88428689999273,1.2130637683284777,0.3441018387904163
113,1,61,4,3,1,1.76770279998891,1.2130637683284777,0.3441018387904163
113,1,62,4,1,1,1.31785580003634,1.2130637683284777,0.3441018387904163
113,1,63,4,2,1,0.950772599957418,1.2130637683284777,0.3441018387904163
113,1,64,4,2,1,1.03416050004307,1.2130637683284777,0.3441018387904163
113,1,65,4,1,0,0.751310200022999,1.2130637683284777,0.3441018387904163
113,1,66,4,2,1,0.886415199958719,1.2130637683284777,0.3441018387904163
113,1,67,4,3,1,0.78624280000804,1.2130637683284777,0.3441018387904163
113,1,68,4,1,1,0.70195329998387,1.2130637683284777,0.3441018387904163
113,1,69,4,2,1,0.934532799990848,1.2130637683284777,0.3441018387904163
113,1,70,4,1,0,1.08400769997388,1.2130637683284777,0.3441018387904163
113,1,71,4,3,1,1.25262480002129,1.2130637683284777,0.3441018387904163
113,1,72,4,2,1,0.719082699972205,1.2130637683284777,0.3441018387904163
113,1,73,4,1,1,1.21718969999347,1.2130637683284777,0.3441018387904163
113,1,74,4,2,1,1.85138910001842,1.2130637683284777,0.3441018387904163
113,1,75,4,3,1,1.00089849997312,1.2130637683284777,0.3441018387904163
113,1,76,4,3,1,1.03376840002602,1.2130637683284777,0.3441018387904163
113,1,77,4,1,0,1.28397400001995,1.2130637683284777,0.3441018387904163
113,1,78,4,3,1,1.16752239997732,1.2130637683284777,0.3441018387904163
113,1,79,4,3,1,1.15069399995264,1.2130637683284777,0.3441018387904163
113,1,80,4,1,0,1.25085449998733,1.2130637683284777,0.3441018387904163
113,1,81,5,2,1,1.32025839999551,1.2130637683284777,0.3441018387904163
113,1,82,5,3,1,0.884187199990265,1.2130637683284777,0.3441018387904163
113,1,83,5,1,1,0.985180300020147,1.2130637683284777,0.3441018387904163
113,1,84,5,1,0,1.75104140001349,1.2130637683284777,0.3441018387904163
113,1,85,5,2,1,1.40101880003931,1.2130637683284777,0.3441018387904163
113,1,86,5,3,1,0.884259300015401,1.2130637683284777,0.3441018387904163
113,1,87,5,3,1,0.850892200018279,1.2130637683284777,0.3441018387904163
113,1,88,5,2,1,1.13400259998161,1.2130637683284777,0.3441018387904163
113,1,89,5,1,1,1.38433839997742,1.2130637683284777,0.3441018387904163
113,1,90,5,3,1,0.869532499986235,1.2130637683284777,0.3441018387904163
113,1,91,5,2,1,1.23416689998703,1.2130637683284777,0.3441018387904163
113,1,92,5,3,1,1.08397289999994,1.2130637683284777,0.3441018387904163
113,1,93,5,1,0,1.00246069999412,1.2130637683284777,0.3441018387904163
113,1,94,5,2,1,0.950708399992436,1.2130637683284777,0.3441018387904163
113,1,95,5,1,1,0.967406400013715,1.2130637683284777,0.3441018387904163
113,1,96,5,3,1,1.25070390000474,1.2130637683284777,0.3441018387904163
113,1,97,5,2,1,1.46768930001417,1.2130637683284777,0.3441018387904163
113,1,98,5,3,1,1.26767209998798,1.2130637683284777,0.3441018387904163
113,1,99,5,1,1,1.18447670002934,1.2130637683284777,0.3441018387904163
113,1,100,5,2,1,1.3677672999911,1.2130637683284777,0.3441018387904163
113,1,101,6,3,1,1.61754820001079,1.2130637683284777,0.3441018387904163
113,1,102,6,1,0,0.800805900013074,1.2130637683284777,0.3441018387904163
113,1,103,6,2,1,1.08538679999765,1.2130637683284777,0.3441018387904163
113,1,104,6,2,1,0.750780600006692,1.2130637683284777,0.3441018387904163
113,1,105,6,1,1,1.41734200000064,1.2130637683284777,0.3441018387904163
113,1,106,6,3,1,1.35290359996725,1.2130637683284777,0.3441018387904163
113,1,107,6,3,1,0.98441009997623,1.2130637683284777,0.3441018387904163
113,1,108,6,1,0,0.667451600020286,1.2130637683284777,0.3441018387904163
113,1,109,6,2,1,0.750687699997798,1.2130637683284777,0.3441018387904163
113,1,110,6,2,1,1.01716989994748,1.2130637683284777,0.3441018387904163
113,1,111,6,1,1,0.700486699992325,1.2130637683284777,0.3441018387904163
113,1,112,6,1,0,0.967521199956536,1.2130637683284777,0.3441018387904163
113,1,113,6,2,1,1.0507374999579,1.2130637683284777,0.3441018387904163
113,1,114,6,3,1,1.03434509999352,1.2130637683284777,0.3441018387904163
113,1,115,6,1,1,1.83410099998582,1.2130637683284777,0.3441018387904163
113,1,116,6,2,1,1.05075920000672,1.2130637683284777,0.3441018387904163
113,1,117,6,1,0,0.867649699968752,1.2130637683284777,0.3441018387904163
113,1,118,6,2,1,1.41813649999676,1.2130637683284777,0.3441018387904163
113,1,119,6,3,1,1.15113339998061,1.2130637683284777,0.3441018387904163
113,1,120,6,3,1,0.950764499953948,1.2130637683284777,0.3441018387904163
114,3,2,1,1,1,2.46758230001433,1.372949445833607,0.5930220706486361
114,3,3,1,2,1,1.63410399999702,1.372949445833607,0.5930220706486361
114,3,5,1,1,0,2.31864439998753,1.372949445833607,0.5930220706486361
114,3,6,1,2,1,1.83450589998392,1.372949445833607,0.5930220706486361
114,3,7,1,3,1,2.53599089995259,1.372949445833607,0.5930220706486361
114,3,8,1,1,1,2.30319410003722,1.372949445833607,0.5930220706486361
114,3,9,1,2,1,1.5673893999774,1.372949445833607,0.5930220706486361
114,3,10,1,1,0,1.93540949997259,1.372949445833607,0.5930220706486361
114,3,12,1,2,1,1.26832249999279,1.372949445833607,0.5930220706486361
114,3,13,1,1,1,1.55081129999598,1.372949445833607,0.5930220706486361
114,3,14,1,2,0,1.65061589999823,1.372949445833607,0.5930220706486361
114,3,15,1,3,1,1.13632960000541,1.372949445833607,0.5930220706486361
114,3,16,1,3,0,1.86789880000288,1.372949445833607,0.5930220706486361
114,3,17,1,1,0,2.36808350001229,1.372949445833607,0.5930220706486361
114,3,18,1,3,1,2.25112230004743,1.372949445833607,0.5930220706486361
114,3,20,1,1,0,2.06772250001086,1.372949445833607,0.5930220706486361
114,3,21,2,2,1,1.6844830000191,1.372949445833607,0.5930220706486361
114,3,22,2,3,1,1.6676905999775,1.372949445833607,0.5930220706486361
114,3,23,2,1,1,1.5009736000211,1.372949445833607,0.5930220706486361
114,3,24,2,1,0,2.03444399998989,1.372949445833607,0.5930220706486361
114,3,25,2,2,0,1.01768069999525,1.372949445833607,0.5930220706486361
114,3,26,2,3,1,2.15065050002886,1.372949445833607,0.5930220706486361
114,3,27,2,3,1,1.41737219999777,1.372949445833607,0.5930220706486361
114,3,28,2,2,1,0.967881200020202,1.372949445833607,0.5930220706486361
114,3,29,2,1,1,1.28425079997396,1.372949445833607,0.5930220706486361
114,3,30,2,3,1,2.00146010000026,1.372949445833607,0.5930220706486361
114,3,31,2,2,0,1.53389980003703,1.372949445833607,0.5930220706486361
114,3,33,2,1,0,1.10102939995704,1.372949445833607,0.5930220706486361
114,3,34,2,2,1,1.18416410003556,1.372949445833607,0.5930220706486361
114,3,35,2,1,1,1.95319399994332,1.372949445833607,0.5930220706486361
114,3,36,2,3,1,0.917737299983855,1.372949445833607,0.5930220706486361
114,3,37,2,2,0,1.20085140003357,1.372949445833607,0.5930220706486361
114,3,38,2,3,1,1.56756080000196,1.372949445833607,0.5930220706486361
114,3,39,2,1,1,1.21719520003535,1.372949445833607,0.5930220706486361
114,3,40,2,2,0,0.886622500023805,1.372949445833607,0.5930220706486361
114,3,41,3,3,1,1.25140020000981,1.372949445833607,0.5930220706486361
114,3,42,3,1,0,0.834262499993201,1.372949445833607,0.5930220706486361
114,3,43,3,2,0,0.834307999990415,1.372949445833607,0.5930220706486361
114,3,44,3,2,1,1.46778279996943,1.372949445833607,0.5930220706486361
114,3,45,3,1,1,1.06759990000864,1.372949445833607,0.5930220706486361
114,3,46,3,3,1,1.18460420001065,1.372949445833607,0.5930220706486361
114,3,47,3,3,1,1.83638210000936,1.372949445833607,0.5930220706486361
114,3,48,3,1,0,1.3507130999933,1.372949445833607,0.5930220706486361
114,3,49,3,2,1,2.20104800001718,1.372949445833607,0.5930220706486361
114,3,50,3,2,0,1.03422550001414,1.372949445833607,0.5930220706486361
114,3,51,3,1,1,1.35094609996304,1.372949445833607,0.5930220706486361
114,3,52,3,1,0,0.800884599972051,1.372949445833607,0.5930220706486361
114,3,53,3,2,0,1.00071579997893,1.372949445833607,0.5930220706486361
114,3,54,3,3,1,1.36788729997352,1.372949445833607,0.5930220706486361
114,3,55,3,1,1,1.71767959999852,1.372949445833607,0.5930220706486361
114,3,56,3,2,1,1.01738239999395,1.372949445833607,0.5930220706486361
114,3,57,3,1,0,0.850946199963801,1.372949445833607,0.5930220706486361
114,3,58,3,2,0,0.76750080002239,1.372949445833607,0.5930220706486361
114,3,59,3,3,0,0.784123299992643,1.372949445833607,0.5930220706486361
114,3,60,3,3,1,1.35071089997655,1.372949445833607,0.5930220706486361
114,3,61,4,3,1,1.5009498000145,1.372949445833607,0.5930220706486361
114,3,62,4,1,1,0.767875399964396,1.372949445833607,0.5930220706486361
114,3,63,4,2,1,0.851012099999934,1.372949445833607,0.5930220706486361
114,3,64,4,2,0,0.750720500014722,1.372949445833607,0.5930220706486361
114,3,65,4,1,0,0.967809699999634,1.372949445833607,0.5930220706486361
114,3,66,4,2,1,0.800856000045314,1.372949445833607,0.5930220706486361
114,3,67,4,3,1,1.75297050003428,1.372949445833607,0.5930220706486361
114,3,68,4,1,1,0.950813099974766,1.372949445833607,0.5930220706486361
114,3,69,4,2,1,0.750477299967315,1.372949445833607,0.5930220706486361
114,3,70,4,1,0,0.817633799975738,1.372949445833607,0.5930220706486361
114,3,71,4,3,1,0.950649599952158,1.372949445833607,0.5930220706486361
114,3,72,4,2,1,1.38520060002338,1.372949445833607,0.5930220706486361
114,3,73,4,1,1,0.850341500015929,1.372949445833607,0.5930220706486361
114,3,74,4,2,0,1.23437129997183,1.372949445833607,0.5930220706486361
114,3,75,4,3,1,0.684154100017622,1.372949445833607,0.5930220706486361
114,3,76,4,3,1,1.95108179998351,1.372949445833607,0.5930220706486361
114,3,77,4,1,0,1.51774270000169,1.372949445833607,0.5930220706486361
114,3,78,4,3,1,1.58454640000127,1.372949445833607,0.5930220706486361
114,3,79,4,3,1,2.2009623000049,1.372949445833607,0.5930220706486361
114,3,80,4,1,0,1.3517906999914,1.372949445833607,0.5930220706486361
114,3,81,5,2,1,1.11759049998363,1.372949445833607,0.5930220706486361
114,3,82,5,3,1,1.31876130000455,1.372949445833607,0.5930220706486361
114,3,83,5,1,1,0.634045200014953,1.372949445833607,0.5930220706486361
114,3,84,5,1,0,0.700616700050887,1.372949445833607,0.5930220706486361
114,3,85,5,2,0,0.800851200008765,1.372949445833607,0.5930220706486361
114,3,86,5,3,0,0.616950800002087,1.372949445833607,0.5930220706486361
114,3,87,5,3,1,1.30098140001064,1.372949445833607,0.5930220706486361
114,3,88,5,2,1,1.00157550000586,1.372949445833607,0.5930220706486361
114,3,89,5,1,1,0.950833200011402,1.372949445833607,0.5930220706486361
114,3,90,5,3,1,1.65120610001031,1.372949445833607,0.5930220706486361
114,3,91,5,2,0,1.11770709999837,1.372949445833607,0.5930220706486361
114,3,92,5,3,1,0.88422399997944,1.372949445833607,0.5930220706486361
114,3,93,5,1,0,0.850943299999926,1.372949445833607,0.5930220706486361
114,3,94,5,2,1,1.13625229999889,1.372949445833607,0.5930220706486361
114,3,95,5,1,1,0.900736799987499,1.372949445833607,0.5930220706486361
114,3,96,5,3,1,0.784142800024711,1.372949445833607,0.5930220706486361
114,3,97,5,2,0,2.48454130004393,1.372949445833607,0.5930220706486361
114,3,98,5,3,1,1.93433220003499,1.372949445833607,0.5930220706486361
114,3,99,5,1,1,0.884091299958527,1.372949445833607,0.5930220706486361
114,3,100,5,2,0,1.18405729997903,1.372949445833607,0.5930220706486361
114,3,101,6,3,1,1.61788440000964,1.372949445833607,0.5930220706486361
114,3,102,6,1,0,0.684323200024664,1.372949445833607,0.5930220706486361
114,3,103,6,2,0,0.850899300014134,1.372949445833607,0.5930220706486361
114,3,104,6,2,1,0.767420399992261,1.372949445833607,0.5930220706486361
114,3,105,6,1,1,0.767562500026543,1.372949445833607,0.5930220706486361
114,3,106,6,3,1,0.900930500007234,1.372949445833607,0.5930220706486361
114,3,107,6,3,1,1.58416999998735,1.372949445833607,0.5930220706486361
114,3,108,6,1,0,0.733939300000202,1.372949445833607,0.5930220706486361
114,3,109,6,2,1,0.802314300031867,1.372949445833607,0.5930220706486361
114,3,110,6,2,0,0.550942300003953,1.372949445833607,0.5930220706486361
114,3,111,6,1,1,0.750839499989524,1.372949445833607,0.5930220706486361
114,3,112,6,1,0,1.68452320003416,1.372949445833607,0.5930220706486361
114,3,113,6,2,0,0.817465900036041,1.372949445833607,0.5930220706486361
114,3,114,6,3,1,1.70115599996643,1.372949445833607,0.5930220706486361
114,3,115,6,1,1,0.734399799956009,1.372949445833607,0.5930220706486361
114,3,116,6,2,1,0.88408420002088,1.372949445833607,0.5930220706486361
114,3,117,6,1,0,1.93401650001761,1.372949445833607,0.5930220706486361
114,3,118,6,2,0,0.952091599989217,1.372949445833607,0.5930220706486361
114,3,119,6,3,1,1.6009575999924,1.372949445833607,0.5930220706486361
114,3,120,6,3,1,1.73416939994786,1.372949445833607,0.5930220706486361
115,NA,3,1,2,1,1.36683830001857,1.6014853184935132,1.23551030912411
115,NA,4,1,2,1,1.40053960005753,1.6014853184935132,1.23551030912411
115,NA,5,1,1,1,3.81789519998711,1.6014853184935132,1.23551030912411
115,NA,6,1,2,1,1.61757679993752,1.6014853184935132,1.23551030912411
115,NA,7,1,3,1,1.40077260008547,1.6014853184935132,1.23551030912411
115,NA,8,1,1,1,2.05100860004313,1.6014853184935132,1.23551030912411
115,NA,9,1,2,1,1.38441090006381,1.6014853184935132,1.23551030912411
115,NA,10,1,1,1,2.63442680006847,1.6014853184935132,1.23551030912411
115,NA,11,1,3,1,1.30048600002192,1.6014853184935132,1.23551030912411
115,NA,12,1,2,1,1.1678015999496,1.6014853184935132,1.23551030912411
115,NA,13,1,1,1,2.03430569998454,1.6014853184935132,1.23551030912411
115,NA,14,1,2,1,1.20047599996906,1.6014853184935132,1.23551030912411
115,NA,15,1,3,1,1.43413999991026,1.6014853184935132,1.23551030912411
115,NA,16,1,3,1,1.25086859997828,1.6014853184935132,1.23551030912411
115,NA,17,1,1,1,1.43429770006333,1.6014853184935132,1.23551030912411
115,NA,18,1,3,1,1.38432150008157,1.6014853184935132,1.23551030912411
115,NA,19,1,3,1,1.18421199999284,1.6014853184935132,1.23551030912411
115,NA,20,1,1,1,1.28424349997658,1.6014853184935132,1.23551030912411
115,NA,21,2,2,1,1.16741800005548,1.6014853184935132,1.23551030912411
115,NA,22,2,3,1,1.40064640005585,1.6014853184935132,1.23551030912411
115,NA,23,2,1,1,1.60093930002768,1.6014853184935132,1.23551030912411
115,NA,24,2,1,1,1.61758670001291,1.6014853184935132,1.23551030912411
115,NA,25,2,2,1,1.28419829998165,1.6014853184935132,1.23551030912411
115,NA,26,2,3,1,1.93420619994868,1.6014853184935132,1.23551030912411
115,NA,27,2,3,1,1.46732469997369,1.6014853184935132,1.23551030912411
115,NA,28,2,2,1,1.00046410004143,1.6014853184935132,1.23551030912411
115,NA,29,2,1,1,1.15120329998899,1.6014853184935132,1.23551030912411
115,NA,30,2,3,1,1.76759470009711,1.6014853184935132,1.23551030912411
115,NA,31,2,2,1,1.0340189000126,1.6014853184935132,1.23551030912411
115,NA,32,2,3,1,1.95095100009348,1.6014853184935132,1.23551030912411
115,NA,34,2,2,1,1.40057779999916,1.6014853184935132,1.23551030912411
115,NA,35,2,1,1,1.2675801999867,1.6014853184935132,1.23551030912411
115,NA,36,2,3,1,1.11888540000655,1.6014853184935132,1.23551030912411
115,NA,37,2,2,1,2.45098990004044,1.6014853184935132,1.23551030912411
115,NA,38,2,3,1,2.21761409996543,1.6014853184935132,1.23551030912411
115,NA,39,2,1,1,1.00181609997526,1.6014853184935132,1.23551030912411
115,NA,40,2,2,1,1.18403290002607,1.6014853184935132,1.23551030912411
115,NA,41,3,3,1,1.20079699996859,1.6014853184935132,1.23551030912411
115,NA,42,3,1,1,0.851151100010611,1.6014853184935132,1.23551030912411
115,NA,43,3,2,1,1.25217739993241,1.6014853184935132,1.23551030912411
115,NA,44,3,2,1,0.983921299921349,1.6014853184935132,1.23551030912411
115,NA,45,3,1,1,1.46743520000018,1.6014853184935132,1.23551030912411
115,NA,46,3,3,1,1.10073129995726,1.6014853184935132,1.23551030912411
115,NA,47,3,3,1,1.16836910007987,1.6014853184935132,1.23551030912411
115,NA,48,3,1,1,1.43394210003316,1.6014853184935132,1.23551030912411
115,NA,49,3,2,1,1.53402420005295,1.6014853184935132,1.23551030912411
115,NA,50,3,2,1,0.450683500035666,1.6014853184935132,1.23551030912411
115,NA,51,3,1,1,3.10110249998979,1.6014853184935132,1.23551030912411
115,NA,52,3,1,1,2.18426350003574,1.6014853184935132,1.23551030912411
115,NA,53,3,2,1,2.83424200001173,1.6014853184935132,1.23551030912411
115,NA,55,3,1,1,1.01741440000478,1.6014853184935132,1.23551030912411
115,NA,56,3,2,1,1.18444640003145,1.6014853184935132,1.23551030912411
115,NA,57,3,1,1,0.950940700015053,1.6014853184935132,1.23551030912411
115,NA,58,3,2,1,0.800720000057481,1.6014853184935132,1.23551030912411
115,NA,59,3,3,1,0.883888900047168,1.6014853184935132,1.23551030912411
115,NA,60,3,3,1,1.08422730001621,1.6014853184935132,1.23551030912411
115,NA,61,4,3,1,1.30071619991213,1.6014853184935132,1.23551030912411
115,NA,62,4,1,1,1.05099359992892,1.6014853184935132,1.23551030912411
115,NA,63,4,2,1,1.33433510002214,1.6014853184935132,1.23551030912411
115,NA,64,4,2,1,1.15074780001305,1.6014853184935132,1.23551030912411
115,NA,65,4,1,1,1.1673090000404,1.6014853184935132,1.23551030912411
115,NA,66,4,2,1,0.952268300112337,1.6014853184935132,1.23551030912411
115,NA,67,4,3,1,0.951328899944201,1.6014853184935132,1.23551030912411
115,NA,68,4,1,1,3.63469960005023,1.6014853184935132,1.23551030912411
115,NA,69,4,2,1,1.06838499999139,1.6014853184935132,1.23551030912411
115,NA,70,4,1,1,0.933951599989086,1.6014853184935132,1.23551030912411
115,NA,71,4,3,1,0.917375599965453,1.6014853184935132,1.23551030912411
115,NA,72,4,2,0,0.567351100035012,1.6014853184935132,1.23551030912411
115,NA,73,4,1,1,1.43403400003444,1.6014853184935132,1.23551030912411
115,NA,74,4,2,1,1.08437739999499,1.6014853184935132,1.23551030912411
115,NA,75,4,3,1,1.53652920003515,1.6014853184935132,1.23551030912411
115,NA,76,4,3,1,1.15093080000952,1.6014853184935132,1.23551030912411
115,NA,77,4,1,0,1.21756299992558,1.6014853184935132,1.23551030912411
115,NA,78,4,3,1,1.35084719990846,1.6014853184935132,1.23551030912411
115,NA,79,4,3,1,1.33396019996144,1.6014853184935132,1.23551030912411
115,NA,80,4,1,1,2.08443849999458,1.6014853184935132,1.23551030912411
115,NA,81,5,2,1,1.05045330000576,1.6014853184935132,1.23551030912411
115,NA,82,5,3,1,1.16744940006174,1.6014853184935132,1.23551030912411
115,NA,83,5,1,1,1.18399819999468,1.6014853184935132,1.23551030912411
115,NA,84,5,1,1,0.98415490007028,1.6014853184935132,1.23551030912411
115,NA,85,5,2,1,1.65063080005348,1.6014853184935132,1.23551030912411
115,NA,86,5,3,1,1.06735329993535,1.6014853184935132,1.23551030912411
115,NA,87,5,3,1,1.18586810003035,1.6014853184935132,1.23551030912411
115,NA,88,5,2,1,0.934081499930471,1.6014853184935132,1.23551030912411
115,NA,89,5,1,1,1.23421669995878,1.6014853184935132,1.23551030912411
115,NA,90,5,3,1,1.134283100022,1.6014853184935132,1.23551030912411
115,NA,91,5,2,1,0.784075099974871,1.6014853184935132,1.23551030912411
115,NA,92,5,3,1,1.13610639993567,1.6014853184935132,1.23551030912411
115,NA,93,5,1,1,1.03430490009487,1.6014853184935132,1.23551030912411
115,NA,94,5,2,1,1.11744369997177,1.6014853184935132,1.23551030912411
115,NA,96,5,3,1,1.26850889995694,1.6014853184935132,1.23551030912411
115,NA,97,5,2,1,1.45083149999846,1.6014853184935132,1.23551030912411
115,NA,98,5,3,1,1.18408370006364,1.6014853184935132,1.23551030912411
115,NA,101,6,3,1,2.66837830003351,1.6014853184935132,1.23551030912411
115,NA,102,6,1,1,2.01943609991577,1.6014853184935132,1.23551030912411
115,NA,103,6,2,1,1.03417030000128,1.6014853184935132,1.23551030912411
115,NA,104,6,2,1,1.0683810999617,1.6014853184935132,1.23551030912411
115,NA,105,6,1,1,1.71750849997625,1.6014853184935132,1.23551030912411
115,NA,106,6,3,1,0.966429900028743,1.6014853184935132,1.23551030912411
115,NA,107,6,3,1,0.835356299998239,1.6014853184935132,1.23551030912411
115,NA,108,6,1,1,0.883897199993953,1.6014853184935132,1.23551030912411
115,NA,109,6,2,1,1.06747390003875,1.6014853184935132,1.23551030912411
115,NA,110,6,2,1,0.950902700074948,1.6014853184935132,1.23551030912411
115,NA,111,6,1,1,0.951762099983171,1.6014853184935132,1.23551030912411
115,NA,112,6,1,1,0.900807600002736,1.6014853184935132,1.23551030912411
115,NA,113,6,2,0,0.850750699988566,1.6014853184935132,1.23551030912411
115,NA,114,6,3,1,1.36747619998641,1.6014853184935132,1.23551030912411
115,NA,115,6,1,0,1.05165679997299,1.6014853184935132,1.23551030912411
115,NA,116,6,2,1,1.13416720007081,1.6014853184935132,1.23551030912411
115,NA,117,6,1,1,1.63624789996538,1.6014853184935132,1.23551030912411
115,NA,118,6,2,1,1.15272390004247,1.6014853184935132,1.23551030912411
115,NA,119,6,3,1,1.05083880003076,1.6014853184935132,1.23551030912411
115,NA,120,6,3,1,0.95089000009466,1.6014853184935132,1.23551030912411
116,NA,1,1,3,0,2.46812599999248,1.576775420340093,0.8695579879723353
116,NA,2,1,1,0,1.95067140000174,1.576775420340093,0.8695579879723353
116,NA,3,1,2,0,1.83427200000733,1.576775420340093,0.8695579879723353
116,NA,4,1,2,1,1.33380790000956,1.576775420340093,0.8695579879723353
116,NA,5,1,1,0,1.10072680001031,1.576775420340093,0.8695579879723353
116,NA,6,1,2,0,1.06766529999732,1.576775420340093,0.8695579879723353
116,NA,7,1,3,1,1.83435799999279,1.576775420340093,0.8695579879723353
116,NA,8,1,1,0,1.13416620000498,1.576775420340093,0.8695579879723353
116,NA,9,1,2,0,1.25109399999201,1.576775420340093,0.8695579879723353
116,NA,10,1,1,0,0.967465399997309,1.576775420340093,0.8695579879723353
116,NA,11,1,3,1,1.11757360000047,1.576775420340093,0.8695579879723353
116,NA,14,1,2,1,1.21741949999705,1.576775420340093,0.8695579879723353
116,NA,15,1,3,1,1.03422660000797,1.576775420340093,0.8695579879723353
116,NA,17,1,1,0,1.60098239999206,1.576775420340093,0.8695579879723353
116,NA,18,1,3,1,1.55073250000714,1.576775420340093,0.8695579879723353
116,NA,19,1,3,1,2.58442980000109,1.576775420340093,0.8695579879723353
116,NA,20,1,1,0,1.65079529999639,1.576775420340093,0.8695579879723353
116,NA,21,2,2,0,1.35077540000202,1.576775420340093,0.8695579879723353
116,NA,22,2,3,1,0.818601400009356,1.576775420340093,0.8695579879723353
116,NA,23,2,1,0,1.38407610000286,1.576775420340093,0.8695579879723353
116,NA,24,2,1,0,1.00086449999071,1.576775420340093,0.8695579879723353
116,NA,25,2,2,1,1.10114849999081,1.576775420340093,0.8695579879723353
116,NA,26,2,3,1,0.984255799994571,1.576775420340093,0.8695579879723353
116,NA,27,2,3,1,1.10047950000444,1.576775420340093,0.8695579879723353
116,NA,28,2,2,1,0.767718000002787,1.576775420340093,0.8695579879723353
116,NA,29,2,1,0,2.26770450000186,1.576775420340093,0.8695579879723353
116,NA,30,2,3,1,1.83400240000628,1.576775420340093,0.8695579879723353
116,NA,31,2,2,1,1.08426570000302,1.576775420340093,0.8695579879723353
116,NA,32,2,3,1,1.06723570000031,1.576775420340093,0.8695579879723353
116,NA,35,2,1,0,1.08427770000708,1.576775420340093,0.8695579879723353
116,NA,36,2,3,1,1.05110759999661,1.576775420340093,0.8695579879723353
116,NA,37,2,2,1,1.4341151000117,1.576775420340093,0.8695579879723353
116,NA,38,2,3,1,1.00091750000138,1.576775420340093,0.8695579879723353
116,NA,39,2,1,0,0.984154499994474,1.576775420340093,0.8695579879723353
116,NA,40,2,2,1,1.15096269999049,1.576775420340093,0.8695579879723353
116,NA,41,3,3,1,2.00097819999792,1.576775420340093,0.8695579879723353
116,NA,42,3,1,1,1.08424290000403,1.576775420340093,0.8695579879723353
116,NA,43,3,2,1,0.802544900012435,1.576775420340093,0.8695579879723353
116,NA,44,3,2,0,1.30155180000293,1.576775420340093,0.8695579879723353
116,NA,45,3,1,0,1.28435859999445,1.576775420340093,0.8695579879723353
116,NA,46,3,3,1,0.93439350000699,1.576775420340093,0.8695579879723353
116,NA,47,3,3,1,1.20144069999515,1.576775420340093,0.8695579879723353
116,NA,49,3,2,0,2.96762979999767,1.576775420340093,0.8695579879723353
116,NA,50,3,2,1,1.45063640001172,1.576775420340093,0.8695579879723353
116,NA,51,3,1,1,1.60094790000585,1.576775420340093,0.8695579879723353
116,NA,52,3,1,0,1.03636200001347,1.576775420340093,0.8695579879723353
116,NA,53,3,2,1,0.867719300003955,1.576775420340093,0.8695579879723353
116,NA,54,3,3,0,1.23467029999301,1.576775420340093,0.8695579879723353
116,NA,55,3,1,1,1.16790669999318,1.576775420340093,0.8695579879723353
116,NA,56,3,2,1,0.883922500011977,1.576775420340093,0.8695579879723353
116,NA,57,3,1,0,0.969361699986621,1.576775420340093,0.8695579879723353
116,NA,58,3,2,0,1.13332679998712,1.576775420340093,0.8695579879723353
116,NA,59,3,3,1,2.71790409999085,1.576775420340093,0.8695579879723353
116,NA,60,3,3,1,1.05097450000176,1.576775420340093,0.8695579879723353
116,NA,61,4,3,1,1.93406689999392,1.576775420340093,0.8695579879723353
116,NA,62,4,1,0,0.951443600002676,1.576775420340093,0.8695579879723353
116,NA,63,4,2,0,1.06717540000682,1.576775420340093,0.8695579879723353
116,NA,64,4,2,1,1.0344555000047,1.576775420340093,0.8695579879723353
116,NA,65,4,1,0,1.30095459999575,1.576775420340093,0.8695579879723353
116,NA,66,4,2,0,0.95097090001218,1.576775420340093,0.8695579879723353
116,NA,67,4,3,1,2.75108970000292,1.576775420340093,0.8695579879723353
116,NA,68,4,1,0,1.60105270000349,1.576775420340093,0.8695579879723353
116,NA,69,4,2,0,1.31787060000352,1.576775420340093,0.8695579879723353
116,NA,70,4,1,0,1.1006580000103,1.576775420340093,0.8695579879723353
116,NA,71,4,3,1,1.00096900000062,1.576775420340093,0.8695579879723353
116,NA,72,4,2,0,1.91809980000835,1.576775420340093,0.8695579879723353
116,NA,73,4,1,1,1.78414250000787,1.576775420340093,0.8695579879723353
116,NA,74,4,2,1,1.06772569999157,1.576775420340093,0.8695579879723353
116,NA,75,4,3,1,1.0009665999969,1.576775420340093,0.8695579879723353
116,NA,76,4,3,1,1.06731640000362,1.576775420340093,0.8695579879723353
116,NA,77,4,1,0,1.00110570000834,1.576775420340093,0.8695579879723353
116,NA,78,4,3,1,1.08401220000815,1.576775420340093,0.8695579879723353
116,NA,79,4,3,0,2.08585610000591,1.576775420340093,0.8695579879723353
116,NA,80,4,1,0,1.4675750000024,1.576775420340093,0.8695579879723353
116,NA,81,5,2,0,1.687073100009,1.576775420340093,0.8695579879723353
116,NA,82,5,3,1,1.60118730000977,1.576775420340093,0.8695579879723353
116,NA,83,5,1,1,1.71745520000695,1.576775420340093,0.8695579879723353
116,NA,84,5,1,1,1.05274720001034,1.576775420340093,0.8695579879723353
116,NA,85,5,2,1,0.867503500005114,1.576775420340093,0.8695579879723353
116,NA,86,5,3,1,1.11751289998938,1.576775420340093,0.8695579879723353
116,NA,87,5,3,1,1.85020230000373,1.576775420340093,0.8695579879723353
116,NA,88,5,2,0,1.93495389999589,1.576775420340093,0.8695579879723353
116,NA,89,5,1,1,1.20098989999678,1.576775420340093,0.8695579879723353
116,NA,90,5,3,0,2.25095879999571,1.576775420340093,0.8695579879723353
116,NA,91,5,2,1,1.91769320001185,1.576775420340093,0.8695579879723353
116,NA,92,5,3,1,0.934380099992268,1.576775420340093,0.8695579879723353
116,NA,94,5,2,0,1.46705040000961,1.576775420340093,0.8695579879723353
116,NA,95,5,1,1,1.70104390000051,1.576775420340093,0.8695579879723353
116,NA,97,5,2,1,0.984212399998796,1.576775420340093,0.8695579879723353
116,NA,98,5,3,1,1.40081439999631,1.576775420340093,0.8695579879723353
116,NA,99,5,1,1,1.46753529999114,1.576775420340093,0.8695579879723353
116,NA,100,5,2,1,1.18427369999699,1.576775420340093,0.8695579879723353
116,NA,101,6,3,1,2.41789350000909,1.576775420340093,0.8695579879723353
116,NA,103,6,2,1,1.21733230000245,1.576775420340093,0.8695579879723353
116,NA,104,6,2,0,1.2175741000101,1.576775420340093,0.8695579879723353
116,NA,105,6,1,1,1.30060679999588,1.576775420340093,0.8695579879723353
116,NA,106,6,3,1,1.21746610000264,1.576775420340093,0.8695579879723353
116,NA,107,6,3,1,1.30117379999137,1.576775420340093,0.8695579879723353
116,NA,108,6,1,0,1.33400889999757,1.576775420340093,0.8695579879723353
116,NA,109,6,2,0,0.950936799999908,1.576775420340093,0.8695579879723353
116,NA,110,6,2,1,1.95090749999508,1.576775420340093,0.8695579879723353
116,NA,111,6,1,1,1.21683740000299,1.576775420340093,0.8695579879723353
116,NA,112,6,1,1,1.48423729999922,1.576775420340093,0.8695579879723353
116,NA,113,6,2,1,1.80093460000353,1.576775420340093,0.8695579879723353
116,NA,114,6,3,1,1.80063179999706,1.576775420340093,0.8695579879723353
116,NA,115,6,1,1,1.55097100000421,1.576775420340093,0.8695579879723353
116,NA,116,6,2,1,1.81791990000056,1.576775420340093,0.8695579879723353
116,NA,117,6,1,1,1.55215100001078,1.576775420340093,0.8695579879723353
116,NA,118,6,2,1,1.1675508999906,1.576775420340093,0.8695579879723353
116,NA,119,6,3,0,1.46783069999947,1.576775420340093,0.8695579879723353
116,NA,120,6,3,1,1.65074579999782,1.576775420340093,0.8695579879723353
117,NA,1,1,3,0,3.61795030000212,1.5548559858326674,1.1303433345540634
117,NA,2,1,1,1,3.03465760000108,1.5548559858326674,1.1303433345540634
117,NA,4,1,2,1,1.63407529999677,1.5548559858326674,1.1303433345540634
117,NA,5,1,1,0,2.08437059998687,1.5548559858326674,1.1303433345540634
117,NA,6,1,2,1,1.98426409999956,1.5548559858326674,1.1303433345540634
117,NA,7,1,3,1,2.30122130000382,1.5548559858326674,1.1303433345540634
117,NA,8,1,1,1,2.3841844000126,1.5548559858326674,1.1303433345540634
117,NA,9,1,2,0,2.06772649999766,1.5548559858326674,1.1303433345540634
117,NA,10,1,1,0,2.10112160000426,1.5548559858326674,1.1303433345540634
117,NA,11,1,3,0,2.66760960000101,1.5548559858326674,1.1303433345540634
117,NA,12,1,2,1,1.11800089999451,1.5548559858326674,1.1303433345540634
117,NA,13,1,1,0,0.93410149999545,1.5548559858326674,1.1303433345540634
117,NA,14,1,2,0,0.851084499998251,1.5548559858326674,1.1303433345540634
117,NA,15,1,3,1,0.550608199991984,1.5548559858326674,1.1303433345540634
117,NA,16,1,3,0,0.567347000003792,1.5548559858326674,1.1303433345540634
117,NA,17,1,1,1,0.667243200005032,1.5548559858326674,1.1303433345540634
117,NA,18,1,3,1,0.65105250000488,1.5548559858326674,1.1303433345540634
117,NA,20,1,1,0,1.83444590000727,1.5548559858326674,1.1303433345540634
117,NA,22,2,3,1,2.46800790000998,1.5548559858326674,1.1303433345540634
117,NA,23,2,1,1,1.15234820000478,1.5548559858326674,1.1303433345540634
117,NA,24,2,1,1,2.10121870000148,1.5548559858326674,1.1303433345540634
117,NA,25,2,2,1,1.60105060000205,1.5548559858326674,1.1303433345540634
117,NA,26,2,3,1,1.28417059998901,1.5548559858326674,1.1303433345540634
117,NA,27,2,3,1,1.5342290999979,1.5548559858326674,1.1303433345540634
117,NA,28,2,2,0,1.68442259999574,1.5548559858326674,1.1303433345540634
117,NA,29,2,1,0,1.15081659999851,1.5548559858326674,1.1303433345540634
117,NA,30,2,3,1,2.28463409999677,1.5548559858326674,1.1303433345540634
117,NA,31,2,2,1,1.08530869999959,1.5548559858326674,1.1303433345540634
117,NA,32,2,3,1,1.03432570000587,1.5548559858326674,1.1303433345540634
117,NA,33,2,1,1,0.83436680000159,1.5548559858326674,1.1303433345540634
117,NA,34,2,2,1,1.45079350000015,1.5548559858326674,1.1303433345540634
117,NA,35,2,1,0,1.00067969999509,1.5548559858326674,1.1303433345540634
117,NA,36,2,3,1,1.68440660000488,1.5548559858326674,1.1303433345540634
117,NA,37,2,2,1,1.81901229999494,1.5548559858326674,1.1303433345540634
117,NA,38,2,3,1,1.31749169999966,1.5548559858326674,1.1303433345540634
117,NA,39,2,1,1,1.31710430000385,1.5548559858326674,1.1303433345540634
117,NA,40,2,2,1,1.25111310000648,1.5548559858326674,1.1303433345540634
117,NA,41,3,3,0,2.43649250001181,1.5548559858326674,1.1303433345540634
117,NA,42,3,1,0,1.90115869999863,1.5548559858326674,1.1303433345540634
117,NA,43,3,2,1,0.953175899994676,1.5548559858326674,1.1303433345540634
117,NA,44,3,2,0,1.20123420000891,1.5548559858326674,1.1303433345540634
117,NA,45,3,1,0,1.35081699999864,1.5548559858326674,1.1303433345540634
117,NA,46,3,3,1,0.75091170000087,1.5548559858326674,1.1303433345540634
117,NA,47,3,3,0,0.800812100002076,1.5548559858326674,1.1303433345540634
117,NA,48,3,1,0,1.06875869999931,1.5548559858326674,1.1303433345540634
117,NA,49,3,2,1,0.217118399988976,1.5548559858326674,1.1303433345540634
117,NA,50,3,2,1,1.81760109998868,1.5548559858326674,1.1303433345540634
117,NA,51,3,1,0,1.53419900000154,1.5548559858326674,1.1303433345540634
117,NA,52,3,1,1,0.867449099998339,1.5548559858326674,1.1303433345540634
117,NA,53,3,2,1,0.500472600004287,1.5548559858326674,1.1303433345540634
117,NA,54,3,3,0,0.200712599995313,1.5548559858326674,1.1303433345540634
117,NA,55,3,1,0,0.83519170001091,1.5548559858326674,1.1303433345540634
117,NA,56,3,2,0,0.767081900004996,1.5548559858326674,1.1303433345540634
117,NA,57,3,1,1,0.817525799997384,1.5548559858326674,1.1303433345540634
117,NA,58,3,2,1,1.11850649998814,1.5548559858326674,1.1303433345540634
117,NA,59,3,3,0,0.934551099999226,1.5548559858326674,1.1303433345540634
117,NA,60,3,3,0,0.683895299996948,1.5548559858326674,1.1303433345540634
117,NA,64,4,2,1,1.98427839999204,1.5548559858326674,1.1303433345540634
117,NA,66,4,2,0,1.41983600000094,1.5548559858326674,1.1303433345540634
117,NA,67,4,3,1,3.70173810000415,1.5548559858326674,1.1303433345540634
117,NA,68,4,1,1,1.0678298999992,1.5548559858326674,1.1303433345540634
117,NA,69,4,2,0,0.567176199998357,1.5548559858326674,1.1303433345540634
117,NA,70,4,1,1,0.751850000000559,1.5548559858326674,1.1303433345540634
117,NA,71,4,3,1,0.80061379999097,1.5548559858326674,1.1303433345540634
117,NA,72,4,2,0,0.883298600005219,1.5548559858326674,1.1303433345540634
117,NA,73,4,1,1,0.88420159999805,1.5548559858326674,1.1303433345540634
117,NA,74,4,2,1,1.88436199999705,1.5548559858326674,1.1303433345540634
117,NA,75,4,3,1,2.51762920001056,1.5548559858326674,1.1303433345540634
117,NA,76,4,3,0,1.18423210000037,1.5548559858326674,1.1303433345540634
117,NA,77,4,1,1,2.35098019998986,1.5548559858326674,1.1303433345540634
117,NA,78,4,3,1,3.18619609999587,1.5548559858326674,1.1303433345540634
117,NA,79,4,3,1,1.85095949999231,1.5548559858326674,1.1303433345540634
117,NA,80,4,1,1,1.76762420000159,1.5548559858326674,1.1303433345540634
117,NA,82,5,3,1,1.06751949999307,1.5548559858326674,1.1303433345540634
117,NA,83,5,1,1,0.717633799999021,1.5548559858326674,1.1303433345540634
117,NA,84,5,1,1,0.51732909999555,1.5548559858326674,1.1303433345540634
117,NA,85,5,2,0,0.683727799987537,1.5548559858326674,1.1303433345540634
117,NA,86,5,3,1,0.717337599999155,1.5548559858326674,1.1303433345540634
117,NA,87,5,3,1,2.26774580001074,1.5548559858326674,1.1303433345540634
117,NA,88,5,2,0,0.750700999997207,1.5548559858326674,1.1303433345540634
117,NA,89,5,1,1,0.767707099992549,1.5548559858326674,1.1303433345540634
117,NA,90,5,3,1,0.88396510000166,1.5548559858326674,1.1303433345540634
117,NA,91,5,2,1,0.867423400006373,1.5548559858326674,1.1303433345540634
117,NA,92,5,3,1,2.18450099999609,1.5548559858326674,1.1303433345540634
117,NA,93,5,1,1,2.0678740000003,1.5548559858326674,1.1303433345540634
117,NA,94,5,2,1,0.567594199994346,1.5548559858326674,1.1303433345540634
117,NA,95,5,1,0,1.38402589999896,1.5548559858326674,1.1303433345540634
117,NA,96,5,3,1,0.917551200007438,1.5548559858326674,1.1303433345540634
117,NA,97,5,2,1,0.500888499998837,1.5548559858326674,1.1303433345540634
117,NA,98,5,3,1,1.3676209999976,1.5548559858326674,1.1303433345540634
117,NA,99,5,1,1,0.867987099991296,1.5548559858326674,1.1303433345540634
117,NA,100,5,2,1,0.800691199998255,1.5548559858326674,1.1303433345540634
117,NA,101,6,3,1,1.9674062999984,1.5548559858326674,1.1303433345540634
117,NA,102,6,1,1,2.25082220000331,1.5548559858326674,1.1303433345540634
117,NA,103,6,2,0,0.867825599998469,1.5548559858326674,1.1303433345540634
117,NA,104,6,2,0,0.60037729999749,1.5548559858326674,1.1303433345540634
117,NA,105,6,1,0,0.834151000002748,1.5548559858326674,1.1303433345540634
117,NA,106,6,3,1,0.733880600004341,1.5548559858326674,1.1303433345540634
117,NA,107,6,3,1,0.484140300002764,1.5548559858326674,1.1303433345540634
117,NA,108,6,1,0,0.950861500008614,1.5548559858326674,1.1303433345540634
117,NA,109,6,2,0,0.534872299991548,1.5548559858326674,1.1303433345540634
117,NA,110,6,2,1,0.984270100001595,1.5548559858326674,1.1303433345540634
117,NA,111,6,1,1,0.950918099988485,1.5548559858326674,1.1303433345540634
117,NA,112,6,1,1,0.61746249999851,1.5548559858326674,1.1303433345540634
117,NA,113,6,2,0,0.51833199999237,1.5548559858326674,1.1303433345540634
117,NA,114,6,3,1,1.26814420000301,1.5548559858326674,1.1303433345540634
117,NA,115,6,1,1,1.55093269998906,1.5548559858326674,1.1303433345540634
117,NA,116,6,2,1,1.55103060000692,1.5548559858326674,1.1303433345540634
117,NA,117,6,1,1,1.16730209998786,1.5548559858326674,1.1303433345540634
117,NA,118,6,2,1,0.849930399999721,1.5548559858326674,1.1303433345540634
117,NA,119,6,3,1,1.51764879999973,1.5548559858326674,1.1303433345540634
117,NA,120,6,3,1,0.968921399995452,1.5548559858326674,1.1303433345540634
118,NA,1,1,3,1,1.80137450000007,1.521236625833319,0.6451415190127295
118,NA,2,1,1,1,2.78465680000022,1.521236625833319,0.6451415190127295
118,NA,4,1,2,1,1.6007259999999,1.521236625833319,0.6451415190127295
118,NA,5,1,1,1,2.43435060000002,1.521236625833319,0.6451415190127295
118,NA,6,1,2,1,1.51804190000007,1.521236625833319,0.6451415190127295
118,NA,7,1,3,0,2.51746760000015,1.521236625833319,0.6451415190127295
118,NA,8,1,1,1,2.101046,1.521236625833319,0.6451415190127295
118,NA,9,1,2,1,2.31778800000006,1.521236625833319,0.6451415190127295
118,NA,10,1,1,1,1.78405380000004,1.521236625833319,0.6451415190127295
118,NA,13,1,1,1,1.95121859999995,1.521236625833319,0.6451415190127295
118,NA,14,1,2,1,1.60111940000002,1.521236625833319,0.6451415190127295
118,NA,15,1,3,1,1.55087819999994,1.521236625833319,0.6451415190127295
118,NA,16,1,3,0,1.78483699999992,1.521236625833319,0.6451415190127295
118,NA,17,1,1,1,2.75087389999999,1.521236625833319,0.6451415190127295
118,NA,18,1,3,1,2.03496289999998,1.521236625833319,0.6451415190127295
118,NA,19,1,3,0,1.11760580000009,1.521236625833319,0.6451415190127295
118,NA,20,1,1,1,1.46853420000002,1.521236625833319,0.6451415190127295
118,NA,21,2,2,1,1.60077490000003,1.521236625833319,0.6451415190127295
118,NA,22,2,3,0,0.967749299999923,1.521236625833319,0.6451415190127295
118,NA,23,2,1,1,1.38445639999986,1.521236625833319,0.6451415190127295
118,NA,24,2,1,1,1.31721139999991,1.521236625833319,0.6451415190127295
118,NA,25,2,2,1,1.00108329999989,1.521236625833319,0.6451415190127295
118,NA,26,2,3,0,1.23424260000002,1.521236625833319,0.6451415190127295
118,NA,27,2,3,1,1.11763059999998,1.521236625833319,0.6451415190127295
118,NA,28,2,2,1,1.76782809999986,1.521236625833319,0.6451415190127295
118,NA,29,2,1,1,1.51779480000005,1.521236625833319,0.6451415190127295
118,NA,30,2,3,0,1.38404259999993,1.521236625833319,0.6451415190127295
118,NA,31,2,2,1,1.3843781999999,1.521236625833319,0.6451415190127295
118,NA,32,2,3,1,1.43437619999986,1.521236625833319,0.6451415190127295
118,NA,33,2,1,1,1.78496229999996,1.521236625833319,0.6451415190127295
118,NA,34,2,2,1,2.23430410000014,1.521236625833319,0.6451415190127295
118,NA,35,2,1,1,1.68411270000001,1.521236625833319,0.6451415190127295
118,NA,36,2,3,1,1.53442410000002,1.521236625833319,0.6451415190127295
118,NA,37,2,2,1,1.3842067999999,1.521236625833319,0.6451415190127295
118,NA,38,2,3,0,1.4675287,1.521236625833319,0.6451415190127295
118,NA,39,2,1,1,2.46749639999985,1.521236625833319,0.6451415190127295
118,NA,40,2,2,1,1.41778999999997,1.521236625833319,0.6451415190127295
118,NA,41,3,3,1,1.65299789999995,1.521236625833319,0.6451415190127295
118,NA,42,3,1,1,2.35121289999984,1.521236625833319,0.6451415190127295
118,NA,43,3,2,1,1.28436979999992,1.521236625833319,0.6451415190127295
118,NA,44,3,2,1,1.20070580000015,1.521236625833319,0.6451415190127295
118,NA,45,3,1,1,1.01743979999992,1.521236625833319,0.6451415190127295
118,NA,46,3,3,1,1.58430929999986,1.521236625833319,0.6451415190127295
118,NA,47,3,3,0,0.934335400000236,1.521236625833319,0.6451415190127295
118,NA,48,3,1,1,1.51778839999997,1.521236625833319,0.6451415190127295
118,NA,49,3,2,1,1.58403580000004,1.521236625833319,0.6451415190127295
118,NA,50,3,2,1,1.7349236,1.521236625833319,0.6451415190127295
118,NA,51,3,1,1,1.06790659999979,1.521236625833319,0.6451415190127295
118,NA,52,3,1,1,1.53421930000013,1.521236625833319,0.6451415190127295
118,NA,53,3,2,1,1.1509916,1.521236625833319,0.6451415190127295
118,NA,54,3,3,0,1.30129239999997,1.521236625833319,0.6451415190127295
118,NA,55,3,1,1,1.38391880000017,1.521236625833319,0.6451415190127295
118,NA,56,3,2,1,1.2505384000001,1.521236625833319,0.6451415190127295
118,NA,57,3,1,1,1.43412390000003,1.521236625833319,0.6451415190127295
118,NA,58,3,2,1,1.45274000000018,1.521236625833319,0.6451415190127295
118,NA,59,3,3,0,1.45068020000008,1.521236625833319,0.6451415190127295
118,NA,60,3,3,1,1.56925619999993,1.521236625833319,0.6451415190127295
118,NA,61,4,3,1,1.10079140000016,1.521236625833319,0.6451415190127295
118,NA,62,4,1,1,1.3176768999997,1.521236625833319,0.6451415190127295
118,NA,63,4,2,1,0.934159999999792,1.521236625833319,0.6451415190127295
118,NA,64,4,2,1,1.36746829999993,1.521236625833319,0.6451415190127295
118,NA,65,4,1,1,1.75094039999976,1.521236625833319,0.6451415190127295
118,NA,66,4,2,1,1.21909450000021,1.521236625833319,0.6451415190127295
118,NA,67,4,3,0,1.35124519999999,1.521236625833319,0.6451415190127295
118,NA,68,4,1,1,1.26741059999995,1.521236625833319,0.6451415190127295
118,NA,69,4,2,1,0.967396000000008,1.521236625833319,0.6451415190127295
118,NA,70,4,1,1,1.76745029999984,1.521236625833319,0.6451415190127295
118,NA,71,4,3,1,1.16749750000008,1.521236625833319,0.6451415190127295
118,NA,72,4,2,1,0.984223399999792,1.521236625833319,0.6451415190127295
118,NA,73,4,1,1,1.05103699999972,1.521236625833319,0.6451415190127295
118,NA,74,4,2,1,1.53478229999973,1.521236625833319,0.6451415190127295
118,NA,75,4,3,1,1.41927469999973,1.521236625833319,0.6451415190127295
118,NA,76,4,3,0,1.00061319999986,1.521236625833319,0.6451415190127295
118,NA,77,4,1,1,1.68412790000002,1.521236625833319,0.6451415190127295
118,NA,78,4,3,1,1.1018839000003,1.521236625833319,0.6451415190127295
118,NA,79,4,3,0,0.717232800000147,1.521236625833319,0.6451415190127295
118,NA,80,4,1,1,1.71925820000024,1.521236625833319,0.6451415190127295
118,NA,81,5,2,1,1.08418170000004,1.521236625833319,0.6451415190127295
118,NA,82,5,3,0,0.766921399999774,1.521236625833319,0.6451415190127295
118,NA,83,5,1,1,0.58410989999993,1.521236625833319,0.6451415190127295
118,NA,84,5,1,1,1.28371400000015,1.521236625833319,0.6451415190127295
118,NA,85,5,2,1,1.40100940000002,1.521236625833319,0.6451415190127295
118,NA,86,5,3,0,1.11753159999989,1.521236625833319,0.6451415190127295
118,NA,87,5,3,1,1.05064140000013,1.521236625833319,0.6451415190127295
118,NA,88,5,2,1,0.984068499999921,1.521236625833319,0.6451415190127295
118,NA,89,5,1,1,1.1860944,1.521236625833319,0.6451415190127295
118,NA,90,5,3,0,1.0017412000002,1.521236625833319,0.6451415190127295
118,NA,91,5,2,1,1.43416799999977,1.521236625833319,0.6451415190127295
118,NA,92,5,3,1,1.08432369999991,1.521236625833319,0.6451415190127295
118,NA,93,5,1,1,1.40080709999984,1.521236625833319,0.6451415190127295
118,NA,94,5,2,1,1.70103539999991,1.521236625833319,0.6451415190127295
118,NA,95,5,1,1,1.93422959999998,1.521236625833319,0.6451415190127295
118,NA,96,5,3,1,1.81910470000003,1.521236625833319,0.6451415190127295
118,NA,97,5,2,1,1.91779599999973,1.521236625833319,0.6451415190127295
118,NA,98,5,3,0,1.56773250000015,1.521236625833319,0.6451415190127295
118,NA,99,5,1,1,2.23470900000029,1.521236625833319,0.6451415190127295
118,NA,100,5,2,1,1.81729360000008,1.521236625833319,0.6451415190127295
118,NA,101,6,3,1,1.38437190000013,1.521236625833319,0.6451415190127295
118,NA,102,6,1,1,1.38419260000001,1.521236625833319,0.6451415190127295
118,NA,103,6,2,1,1.16794169999957,1.521236625833319,0.6451415190127295
118,NA,104,6,2,1,0.817671100000098,1.521236625833319,0.6451415190127295
118,NA,105,6,1,1,0.717274400000406,1.521236625833319,0.6451415190127295
118,NA,106,6,3,1,0.501148299999841,1.521236625833319,0.6451415190127295
118,NA,107,6,3,0,0.817540300000019,1.521236625833319,0.6451415190127295
118,NA,108,6,1,1,1.10125419999986,1.521236625833319,0.6451415190127295
118,NA,109,6,2,1,1.70092969999996,1.521236625833319,0.6451415190127295
118,NA,110,6,2,1,1.26774139999998,1.521236625833319,0.6451415190127295
118,NA,111,6,1,1,1.25069570000005,1.521236625833319,0.6451415190127295
118,NA,112,6,1,1,2.01807929999995,1.521236625833319,0.6451415190127295
118,NA,113,6,2,1,1.78407389999984,1.521236625833319,0.6451415190127295
118,NA,114,6,3,0,1.05089389999966,1.521236625833319,0.6451415190127295
118,NA,115,6,1,1,0.834473800000069,1.521236625833319,0.6451415190127295
118,NA,116,6,2,1,0.850609199999781,1.521236625833319,0.6451415190127295
118,NA,117,6,1,1,1.58450399999992,1.521236625833319,0.6451415190127295
118,NA,118,6,2,1,1.51690619999999,1.521236625833319,0.6451415190127295
118,NA,119,6,3,0,1.51751000000013,1.521236625833319,0.6451415190127295
118,NA,120,6,3,1,2.05117080000036,1.521236625833319,0.6451415190127295
119,NA,2,1,1,1,3.15120749999915,3.2213498731480628,1.8579713120284405
119,NA,3,1,2,0,4.61838540000099,3.2213498731480628,1.8579713120284405
119,NA,4,1,2,1,1.91769299999942,3.2213498731480628,1.8579713120284405
119,NA,5,1,1,1,3.10083099999974,3.2213498731480628,1.8579713120284405
119,NA,6,1,2,0,5.60161670000161,3.2213498731480628,1.8579713120284405
119,NA,7,1,3,1,2.35155270000178,3.2213498731480628,1.8579713120284405
119,NA,8,1,1,1,1.78430160000062,3.2213498731480628,1.8579713120284405
119,NA,9,1,2,0,5.8847139999998,3.2213498731480628,1.8579713120284405
119,NA,10,1,1,1,2.43407060000027,3.2213498731480628,1.8579713120284405
119,NA,11,1,3,1,3.70152139999846,3.2213498731480628,1.8579713120284405
119,NA,12,1,2,0,4.00103429999945,3.2213498731480628,1.8579713120284405
119,NA,13,1,1,1,1.96778310000082,3.2213498731480628,1.8579713120284405
119,NA,14,1,2,1,1.65200650000043,3.2213498731480628,1.8579713120284405
119,NA,15,1,3,1,1.81762329999765,3.2213498731480628,1.8579713120284405
119,NA,16,1,3,1,1.75090210000053,3.2213498731480628,1.8579713120284405
119,NA,17,1,1,1,5.81840829999783,3.2213498731480628,1.8579713120284405
119,NA,18,1,3,1,2.0675396000006,3.2213498731480628,1.8579713120284405
119,NA,19,1,3,1,1.53474769999957,3.2213498731480628,1.8579713120284405
119,NA,20,1,1,1,5.86817530000189,3.2213498731480628,1.8579713120284405
119,NA,22,2,3,1,4.21977159999733,3.2213498731480628,1.8579713120284405
119,NA,23,2,1,1,1.53562790000069,3.2213498731480628,1.8579713120284405
119,NA,24,2,1,1,4.73514129999967,3.2213498731480628,1.8579713120284405
119,NA,25,2,2,1,2.18448209999769,3.2213498731480628,1.8579713120284405
119,NA,26,2,3,1,3.08434330000091,3.2213498731480628,1.8579713120284405
119,NA,28,2,2,0,2.91785080000045,3.2213498731480628,1.8579713120284405
119,NA,29,2,1,0,4.31834869999875,3.2213498731480628,1.8579713120284405
119,NA,30,2,3,1,4.25115600000208,3.2213498731480628,1.8579713120284405
119,NA,31,2,2,1,1.90063400000145,3.2213498731480628,1.8579713120284405
119,NA,35,2,1,1,3.1184702999999,3.2213498731480628,1.8579713120284405
119,NA,36,2,3,0,3.15111279999837,3.2213498731480628,1.8579713120284405
119,NA,37,2,2,1,2.35111590000088,3.2213498731480628,1.8579713120284405
119,NA,38,2,3,1,2.26748199999929,3.2213498731480628,1.8579713120284405
119,NA,39,2,1,1,5.21792740000092,3.2213498731480628,1.8579713120284405
119,NA,40,2,2,1,4.83459930000026,3.2213498731480628,1.8579713120284405
119,NA,42,3,1,1,4.53480639999907,3.2213498731480628,1.8579713120284405
119,NA,43,3,2,1,2.1008253,3.2213498731480628,1.8579713120284405
119,NA,44,3,2,0,1.55300759999955,3.2213498731480628,1.8579713120284405
119,NA,45,3,1,1,1.9847179999997,3.2213498731480628,1.8579713120284405
119,NA,46,3,3,1,3.65092960000038,3.2213498731480628,1.8579713120284405
119,NA,47,3,3,1,2.60084450000068,3.2213498731480628,1.8579713120284405
119,NA,48,3,1,1,1.65157399999953,3.2213498731480628,1.8579713120284405
119,NA,49,3,2,0,2.46793979999711,3.2213498731480628,1.8579713120284405
119,NA,50,3,2,1,1.65129639999941,3.2213498731480628,1.8579713120284405
119,NA,51,3,1,1,1.73457889999918,3.2213498731480628,1.8579713120284405
119,NA,52,3,1,1,1.90373059999911,3.2213498731480628,1.8579713120284405
119,NA,53,3,2,1,1.63365850000264,3.2213498731480628,1.8579713120284405
119,NA,54,3,3,1,1.65117389999796,3.2213498731480628,1.8579713120284405
119,NA,56,3,2,0,2.43476270000247,3.2213498731480628,1.8579713120284405
119,NA,57,3,1,1,3.25172389999716,3.2213498731480628,1.8579713120284405
119,NA,58,3,2,1,3.70115429999714,3.2213498731480628,1.8579713120284405
119,NA,59,3,3,1,4.46781310000006,3.2213498731480628,1.8579713120284405
119,NA,60,3,3,1,2.93501150000156,3.2213498731480628,1.8579713120284405
119,NA,62,4,1,1,3.25120610000158,3.2213498731480628,1.8579713120284405
119,NA,64,4,2,1,3.01856239999688,3.2213498731480628,1.8579713120284405
119,NA,65,4,1,1,4.30091729999913,3.2213498731480628,1.8579713120284405
119,NA,67,4,3,1,3.38439160000053,3.2213498731480628,1.8579713120284405
119,NA,70,4,1,1,5.08523380000042,3.2213498731480628,1.8579713120284405
119,NA,71,4,3,0,0.751154000001407,3.2213498731480628,1.8579713120284405
119,NA,73,4,1,1,3.16812420000133,3.2213498731480628,1.8579713120284405
119,NA,74,4,2,1,2.16799779999928,3.2213498731480628,1.8579713120284405
119,NA,76,4,3,1,1.83460070000001,3.2213498731480628,1.8579713120284405
119,NA,77,4,1,1,1.61798439999984,3.2213498731480628,1.8579713120284405
119,NA,78,4,3,1,2.7677834999995,3.2213498731480628,1.8579713120284405
119,NA,79,4,3,1,2.58449889999974,3.2213498731480628,1.8579713120284405
119,NA,80,4,1,1,3.05134910000197,3.2213498731480628,1.8579713120284405
119,NA,83,5,1,1,3.50098430000071,3.2213498731480628,1.8579713120284405
119,NA,84,5,1,1,5.05155240000022,3.2213498731480628,1.8579713120284405
119,NA,85,5,2,1,4.16852020000078,3.2213498731480628,1.8579713120284405
119,NA,86,5,3,1,1.8012252999979,3.2213498731480628,1.8579713120284405
119,NA,88,5,2,0,4.56801110000015,3.2213498731480628,1.8579713120284405
119,NA,89,5,1,1,1.93444580000141,3.2213498731480628,1.8579713120284405
119,NA,90,5,3,1,4.75187920000099,3.2213498731480628,1.8579713120284405
119,NA,91,5,2,1,1.73421550000057,3.2213498731480628,1.8579713120284405
119,NA,93,5,1,1,3.50126689999888,3.2213498731480628,1.8579713120284405
119,NA,94,5,2,1,4.13500419999764,3.2213498731480628,1.8579713120284405
119,NA,95,5,1,1,2.56794369999989,3.2213498731480628,1.8579713120284405
119,NA,96,5,3,1,1.93383019999965,3.2213498731480628,1.8579713120284405
119,NA,97,5,2,1,1.80130169999757,3.2213498731480628,1.8579713120284405
119,NA,98,5,3,1,3.15235939999911,3.2213498731480628,1.8579713120284405
119,NA,99,5,1,1,1.71773989999929,3.2213498731480628,1.8579713120284405
119,NA,100,5,2,1,2.76794840000002,3.2213498731480628,1.8579713120284405
119,NA,101,6,3,1,3.2692062999995,3.2213498731480628,1.8579713120284405
119,NA,102,6,1,1,1.35030109999934,3.2213498731480628,1.8579713120284405
119,NA,103,6,2,1,1.40096289999929,3.2213498731480628,1.8579713120284405
119,NA,104,6,2,1,2.11784780000016,3.2213498731480628,1.8579713120284405
119,NA,105,6,1,1,1.75067140000101,3.2213498731480628,1.8579713120284405
119,NA,106,6,3,0,2.13410170000134,3.2213498731480628,1.8579713120284405
119,NA,107,6,3,1,1.91917829999875,3.2213498731480628,1.8579713120284405
119,NA,108,6,1,1,2.13413789999686,3.2213498731480628,1.8579713120284405
119,NA,109,6,2,0,4.88599210000029,3.2213498731480628,1.8579713120284405
119,NA,110,6,2,1,1.38436130000264,3.2213498731480628,1.8579713120284405
119,NA,111,6,1,1,1.50161169999774,3.2213498731480628,1.8579713120284405
119,NA,112,6,1,1,2.101015799999,3.2213498731480628,1.8579713120284405
119,NA,113,6,2,1,2.61789760000102,3.2213498731480628,1.8579713120284405
119,NA,114,6,3,1,1.90334710000025,3.2213498731480628,1.8579713120284405
119,NA,115,6,1,1,1.5846504000001,3.2213498731480628,1.8579713120284405
119,NA,116,6,2,1,6.20155630000227,3.2213498731480628,1.8579713120284405
119,NA,117,6,1,1,2.65127890000076,3.2213498731480628,1.8579713120284405
119,NA,118,6,2,1,1.26732289999927,3.2213498731480628,1.8579713120284405
119,NA,119,6,3,1,1.46798940000008,3.2213498731480628,1.8579713120284405
119,NA,120,6,3,0,2.28493460000027,3.2213498731480628,1.8579713120284405
120,NA,2,1,1,0,3.73440950000077,2.3456380612067984,1.5088601132446873
120,NA,3,1,2,1,4.63370280000163,2.3456380612067984,1.5088601132446873
120,NA,4,1,2,1,2.90156120000029,2.3456380612067984,1.5088601132446873
120,NA,5,1,1,1,1.86752989999877,2.3456380612067984,1.5088601132446873
120,NA,6,1,2,1,1.40069840000069,2.3456380612067984,1.5088601132446873
120,NA,7,1,3,1,1.55196389999765,2.3456380612067984,1.5088601132446873
120,NA,8,1,1,1,1.05089219999718,2.3456380612067984,1.5088601132446873
120,NA,9,1,2,0,1.2512381000015,2.3456380612067984,1.5088601132446873
120,NA,10,1,1,0,1.51773320000211,2.3456380612067984,1.5088601132446873
120,NA,12,1,2,0,2.03406000000177,2.3456380612067984,1.5088601132446873
120,NA,13,1,1,1,4.2681668999976,2.3456380612067984,1.5088601132446873
120,NA,14,1,2,1,1.71773500000199,2.3456380612067984,1.5088601132446873
120,NA,15,1,3,1,3.21781790000023,2.3456380612067984,1.5088601132446873
120,NA,16,1,3,1,1.4523838999994,2.3456380612067984,1.5088601132446873
120,NA,17,1,1,0,0.968912500000442,2.3456380612067984,1.5088601132446873
120,NA,18,1,3,0,1.96803669999645,2.3456380612067984,1.5088601132446873
120,NA,19,1,3,0,1.38409700000193,2.3456380612067984,1.5088601132446873
120,NA,20,1,1,1,1.45083509999677,2.3456380612067984,1.5088601132446873
120,NA,21,2,2,0,4.08462800000052,2.3456380612067984,1.5088601132446873
120,NA,22,2,3,1,1.93384630000219,2.3456380612067984,1.5088601132446873
120,NA,23,2,1,0,3.75211259999924,2.3456380612067984,1.5088601132446873
120,NA,24,2,1,0,2.18430050000097,2.3456380612067984,1.5088601132446873
120,NA,25,2,2,0,2.56785379999928,2.3456380612067984,1.5088601132446873
120,NA,26,2,3,1,3.71795209999982,2.3456380612067984,1.5088601132446873
120,NA,27,2,3,1,2.60088820000237,2.3456380612067984,1.5088601132446873
120,NA,28,2,2,0,2.38439480000307,2.3456380612067984,1.5088601132446873
120,NA,29,2,1,1,1.33411139999953,2.3456380612067984,1.5088601132446873
120,NA,30,2,3,1,1.31739919999745,2.3456380612067984,1.5088601132446873
120,NA,31,2,2,0,1.03369040000325,2.3456380612067984,1.5088601132446873
120,NA,32,2,3,0,0.901064399997267,2.3456380612067984,1.5088601132446873
120,NA,33,2,1,1,1.95100979999916,2.3456380612067984,1.5088601132446873
120,NA,34,2,2,0,0.967701800000214,2.3456380612067984,1.5088601132446873
120,NA,35,2,1,0,1.01704609999797,2.3456380612067984,1.5088601132446873
120,NA,36,2,3,1,1.0009444999996,2.3456380612067984,1.5088601132446873
120,NA,37,2,2,1,0.970142199999827,2.3456380612067984,1.5088601132446873
120,NA,38,2,3,0,0.367210899999918,2.3456380612067984,1.5088601132446873
120,NA,39,2,1,0,0.884982600000512,2.3456380612067984,1.5088601132446873
120,NA,41,3,3,0,4.40145069999926,2.3456380612067984,1.5088601132446873
120,NA,42,3,1,0,3.11809530000028,2.3456380612067984,1.5088601132446873
120,NA,43,3,2,1,2.63416429999779,2.3456380612067984,1.5088601132446873
120,NA,44,3,2,0,2.70098679999865,2.3456380612067984,1.5088601132446873
120,NA,47,3,3,1,1.75133859999914,2.3456380612067984,1.5088601132446873
120,NA,49,3,2,1,4.45132480000029,2.3456380612067984,1.5088601132446873
120,NA,50,3,2,0,2.80126530000052,2.3456380612067984,1.5088601132446873
120,NA,52,3,1,1,1.73439719999806,2.3456380612067984,1.5088601132446873
120,NA,53,3,2,0,1.86748710000029,2.3456380612067984,1.5088601132446873
120,NA,54,3,3,1,1.36775860000125,2.3456380612067984,1.5088601132446873
120,NA,55,3,1,1,1.31836779999867,2.3456380612067984,1.5088601132446873
120,NA,56,3,2,0,1.30346669999926,2.3456380612067984,1.5088601132446873
120,NA,57,3,1,1,2.00113830000191,2.3456380612067984,1.5088601132446873
120,NA,58,3,2,0,2.06872559999829,2.3456380612067984,1.5088601132446873
120,NA,59,3,3,1,0.417660700000852,2.3456380612067984,1.5088601132446873
120,NA,60,3,3,1,1.4844869999979,2.3456380612067984,1.5088601132446873
120,NA,61,4,3,1,2.38455240000258,2.3456380612067984,1.5088601132446873
120,NA,62,4,1,1,1.83423709999988,2.3456380612067984,1.5088601132446873
120,NA,63,4,2,0,1.70105369999874,2.3456380612067984,1.5088601132446873
120,NA,64,4,2,0,4.7514470999995,2.3456380612067984,1.5088601132446873
120,NA,65,4,1,0,5.16838830000052,2.3456380612067984,1.5088601132446873
120,NA,66,4,2,0,2.15118330000041,2.3456380612067984,1.5088601132446873
120,NA,67,4,3,1,1.76724439999816,2.3456380612067984,1.5088601132446873
120,NA,68,4,1,1,2.01936310000019,2.3456380612067984,1.5088601132446873
120,NA,69,4,2,0,1.71736179999789,2.3456380612067984,1.5088601132446873
120,NA,70,4,1,0,1.91762709999966,2.3456380612067984,1.5088601132446873
120,NA,71,4,3,0,2.30080160000216,2.3456380612067984,1.5088601132446873
120,NA,72,4,2,1,1.01751820000209,2.3456380612067984,1.5088601132446873
120,NA,73,4,1,0,1.01716119999764,2.3456380612067984,1.5088601132446873
120,NA,74,4,2,0,1.03410649999933,2.3456380612067984,1.5088601132446873
120,NA,75,4,3,0,1.05090829999972,2.3456380612067984,1.5088601132446873
120,NA,76,4,3,1,2.11796129999857,2.3456380612067984,1.5088601132446873
120,NA,77,4,1,1,1.90151200000037,2.3456380612067984,1.5088601132446873
120,NA,78,4,3,1,2.15158760000122,2.3456380612067984,1.5088601132446873
120,NA,79,4,3,1,1.66786259999935,2.3456380612067984,1.5088601132446873
120,NA,81,5,2,0,1.33409419999953,2.3456380612067984,1.5088601132446873
120,NA,82,5,3,1,1.18435600000157,2.3456380612067984,1.5088601132446873
120,NA,83,5,1,0,1.78448409999692,2.3456380612067984,1.5088601132446873
120,NA,84,5,1,0,1.35073710000142,2.3456380612067984,1.5088601132446873
120,NA,85,5,2,1,3.40108469999905,2.3456380612067984,1.5088601132446873
120,NA,87,5,3,0,3.0180603000008,2.3456380612067984,1.5088601132446873
120,NA,88,5,2,0,1.60084130000178,2.3456380612067984,1.5088601132446873
120,NA,89,5,1,1,1.48420070000066,2.3456380612067984,1.5088601132446873
120,NA,90,5,3,1,1.58413909999945,2.3456380612067984,1.5088601132446873
120,NA,91,5,2,1,2.88452920000054,2.3456380612067984,1.5088601132446873
120,NA,92,5,3,1,1.30075769999894,2.3456380612067984,1.5088601132446873
120,NA,93,5,1,1,1.28415989999849,2.3456380612067984,1.5088601132446873
120,NA,94,5,2,0,1.96798860000126,2.3456380612067984,1.5088601132446873
120,NA,95,5,1,1,2.13458419999733,2.3456380612067984,1.5088601132446873
120,NA,96,5,3,0,1.31825369999933,2.3456380612067984,1.5088601132446873
120,NA,97,5,2,1,1.51801500000147,2.3456380612067984,1.5088601132446873
120,NA,98,5,3,1,1.50280539999949,2.3456380612067984,1.5088601132446873
120,NA,99,5,1,1,1.93401520000043,2.3456380612067984,1.5088601132446873
120,NA,100,5,2,1,1.28457759999947,2.3456380612067984,1.5088601132446873
120,NA,101,6,3,0,4.26813780000157,2.3456380612067984,1.5088601132446873
120,NA,102,6,1,1,1.3844906000013,2.3456380612067984,1.5088601132446873
120,NA,103,6,2,0,1.00110539999878,2.3456380612067984,1.5088601132446873
120,NA,104,6,2,0,1.30054639999798,2.3456380612067984,1.5088601132446873
120,NA,105,6,1,1,2.55121019999933,2.3456380612067984,1.5088601132446873
120,NA,106,6,3,0,4.20172550000279,2.3456380612067984,1.5088601132446873
120,NA,107,6,3,1,1.46930590000193,2.3456380612067984,1.5088601132446873
120,NA,108,6,1,0,3.65128039999763,2.3456380612067984,1.5088601132446873
120,NA,109,6,2,0,1.60076969999864,2.3456380612067984,1.5088601132446873
120,NA,110,6,2,0,2.85176839999986,2.3456380612067984,1.5088601132446873
120,NA,111,6,1,0,2.66742800000065,2.3456380612067984,1.5088601132446873
120,NA,112,6,1,0,4.40109859999939,2.3456380612067984,1.5088601132446873
120,NA,113,6,2,1,3.35081779999746,2.3456380612067984,1.5088601132446873
120,NA,114,6,3,1,1.75090420000197,2.3456380612067984,1.5088601132446873
120,NA,116,6,2,0,3.50138230000084,2.3456380612067984,1.5088601132446873
120,NA,117,6,1,0,1.80125390000103,2.3456380612067984,1.5088601132446873
120,NA,118,6,2,1,1.56751520000034,2.3456380612067984,1.5088601132446873
120,NA,119,6,3,1,3.01786619999984,2.3456380612067984,1.5088601132446873
120,NA,120,6,3,1,1.51767389999804,2.3456380612067984,1.5088601132446873
121,NA,3,1,2,0,2.63493199995719,1.7144596191724604,1.0847493097842102
121,NA,4,1,2,0,2.71765660005622,1.7144596191724604,1.0847493097842102
121,NA,5,1,1,1,2.35065200005192,1.7144596191724604,1.0847493097842102
121,NA,7,1,3,0,2.55129730002955,1.7144596191724604,1.0847493097842102
121,NA,8,1,1,1,1.38449740002397,1.7144596191724604,1.0847493097842102
121,NA,10,1,1,0,2.45154939999338,1.7144596191724604,1.0847493097842102
121,NA,11,1,3,0,3.18395959993359,1.7144596191724604,1.0847493097842102
121,NA,12,1,2,1,2.93463809997775,1.7144596191724604,1.0847493097842102
121,NA,13,1,1,1,1.95113430009224,1.7144596191724604,1.0847493097842102
121,NA,14,1,2,0,1.667741100071,1.7144596191724604,1.0847493097842102
121,NA,15,1,3,0,2.00133690005168,1.7144596191724604,1.0847493097842102
121,NA,16,1,3,0,3.43496149999555,1.7144596191724604,1.0847493097842102
121,NA,17,1,1,0,2.13436780008487,1.7144596191724604,1.0847493097842102
121,NA,18,1,3,1,1.45097390003502,1.7144596191724604,1.0847493097842102
121,NA,19,1,3,1,1.61789380002301,1.7144596191724604,1.0847493097842102
121,NA,20,1,1,1,3.71808929997496,1.7144596191724604,1.0847493097842102
121,NA,21,2,2,1,1.33464110002387,1.7144596191724604,1.0847493097842102
121,NA,22,2,3,1,1.0508633001009,1.7144596191724604,1.0847493097842102
121,NA,23,2,1,1,0.934537000022829,1.7144596191724604,1.0847493097842102
121,NA,24,2,1,1,1.43433220009319,1.7144596191724604,1.0847493097842102
121,NA,25,2,2,0,1.48435889999382,1.7144596191724604,1.0847493097842102
121,NA,26,2,3,1,1.3679364999989,1.7144596191724604,1.0847493097842102
121,NA,27,2,3,1,1.66701990005095,1.7144596191724604,1.0847493097842102
121,NA,28,2,2,0,1.86843860009685,1.7144596191724604,1.0847493097842102
121,NA,29,2,1,1,1.30224789993372,1.7144596191724604,1.0847493097842102
121,NA,30,2,3,1,2.28456359996926,1.7144596191724604,1.0847493097842102
121,NA,31,2,2,0,1.25103559996933,1.7144596191724604,1.0847493097842102
121,NA,32,2,3,0,1.68436870002188,1.7144596191724604,1.0847493097842102
121,NA,33,2,1,0,2.50105260009877,1.7144596191724604,1.0847493097842102
121,NA,35,2,1,1,1.36752059997525,1.7144596191724604,1.0847493097842102
121,NA,36,2,3,0,1.36743889993522,1.7144596191724604,1.0847493097842102
121,NA,37,2,2,0,1.95085659995675,1.7144596191724604,1.0847493097842102
121,NA,38,2,3,1,1.75340590009,1.7144596191724604,1.0847493097842102
121,NA,39,2,1,1,1.36715249996632,1.7144596191724604,1.0847493097842102
121,NA,40,2,2,0,1.60075240000151,1.7144596191724604,1.0847493097842102
121,NA,41,3,3,0,1.78443230001722,1.7144596191724604,1.0847493097842102
121,NA,42,3,1,0,0.617681500036269,1.7144596191724604,1.0847493097842102
121,NA,43,3,2,0,1.01730629999656,1.7144596191724604,1.0847493097842102
121,NA,44,3,2,0,1.01811710000038,1.7144596191724604,1.0847493097842102
121,NA,45,3,1,0,0.850809799972922,1.7144596191724604,1.0847493097842102
121,NA,46,3,3,1,1.36763310001697,1.7144596191724604,1.0847493097842102
121,NA,47,3,3,1,2.33481999998912,1.7144596191724604,1.0847493097842102
121,NA,48,3,1,0,3.36953769996762,1.7144596191724604,1.0847493097842102
121,NA,49,3,2,1,1.46773479995318,1.7144596191724604,1.0847493097842102
121,NA,50,3,2,1,1.51763470005244,1.7144596191724604,1.0847493097842102
121,NA,51,3,1,1,2.08600410004146,1.7144596191724604,1.0847493097842102
121,NA,52,3,1,1,1.73497980006505,1.7144596191724604,1.0847493097842102
121,NA,53,3,2,0,3.55158169998322,1.7144596191724604,1.0847493097842102
121,NA,54,3,3,1,1.600803899928,1.7144596191724604,1.0847493097842102
121,NA,55,3,1,0,1.85114190005697,1.7144596191724604,1.0847493097842102
121,NA,56,3,2,1,1.31758039991837,1.7144596191724604,1.0847493097842102
121,NA,57,3,1,0,1.51752839994151,1.7144596191724604,1.0847493097842102
121,NA,58,3,2,1,1.60066879994702,1.7144596191724604,1.0847493097842102
121,NA,59,3,3,1,1.8008453999646,1.7144596191724604,1.0847493097842102
121,NA,60,3,3,1,1.55086459999438,1.7144596191724604,1.0847493097842102
121,NA,61,4,3,1,2.16833360004239,1.7144596191724604,1.0847493097842102
121,NA,62,4,1,1,0.78404810000211,1.7144596191724604,1.0847493097842102
121,NA,63,4,2,0,0.78645889996551,1.7144596191724604,1.0847493097842102
121,NA,64,4,2,1,0.667251200065948,1.7144596191724604,1.0847493097842102
121,NA,66,4,2,1,0.850843499996699,1.7144596191724604,1.0847493097842102
121,NA,67,4,3,0,1.20114199991804,1.7144596191724604,1.0847493097842102
121,NA,68,4,1,0,1.05029139993712,1.7144596191724604,1.0847493097842102
121,NA,69,4,2,1,1.4335379000986,1.7144596191724604,1.0847493097842102
121,NA,70,4,1,1,2.86745279992465,1.7144596191724604,1.0847493097842102
121,NA,71,4,3,1,0.784124300000258,1.7144596191724604,1.0847493097842102
121,NA,72,4,2,1,1.03413279994857,1.7144596191724604,1.0847493097842102
121,NA,73,4,1,0,2.5344956999179,1.7144596191724604,1.0847493097842102
121,NA,74,4,2,0,1.15162820008118,1.7144596191724604,1.0847493097842102
121,NA,75,4,3,0,1.09985890006647,1.7144596191724604,1.0847493097842102
121,NA,76,4,3,0,1.33437519997824,1.7144596191724604,1.0847493097842102
121,NA,77,4,1,1,1.33420290006325,1.7144596191724604,1.0847493097842102
121,NA,78,4,3,0,0.650827999925241,1.7144596191724604,1.0847493097842102
121,NA,79,4,3,0,0.83418000000529,1.7144596191724604,1.0847493097842102
121,NA,80,4,1,0,1.83502650004812,1.7144596191724604,1.0847493097842102
121,NA,81,5,2,1,1.25081180001143,1.7144596191724604,1.0847493097842102
121,NA,82,5,3,0,0.967675300082192,1.7144596191724604,1.0847493097842102
121,NA,83,5,1,0,0.569048499921337,1.7144596191724604,1.0847493097842102
121,NA,84,5,1,0,0.651706300093792,1.7144596191724604,1.0847493097842102
121,NA,85,5,2,0,0.534258000086993,1.7144596191724604,1.0847493097842102
121,NA,86,5,3,1,0.800822700024582,1.7144596191724604,1.0847493097842102
121,NA,87,5,3,1,0.81690700002946,1.7144596191724604,1.0847493097842102
121,NA,88,5,2,0,0.53420980006922,1.7144596191724604,1.0847493097842102
121,NA,89,5,1,0,0.617096700007096,1.7144596191724604,1.0847493097842102
121,NA,90,5,3,0,0.750872700009495,1.7144596191724604,1.0847493097842102
121,NA,91,5,2,0,0.851245400030166,1.7144596191724604,1.0847493097842102
121,NA,92,5,3,1,0.683578499942087,1.7144596191724604,1.0847493097842102
121,NA,93,5,1,1,1.0011692000553,1.7144596191724604,1.0847493097842102
121,NA,94,5,2,1,0.73405890003778,1.7144596191724604,1.0847493097842102
121,NA,95,5,1,0,0.933994200080633,1.7144596191724604,1.0847493097842102
121,NA,96,5,3,1,0.850802100030705,1.7144596191724604,1.0847493097842102
121,NA,97,5,2,1,2.18519200000446,1.7144596191724604,1.0847493097842102
121,NA,98,5,3,0,0.86797210003715,1.7144596191724604,1.0847493097842102
121,NA,99,5,1,1,1.30073299992364,1.7144596191724604,1.0847493097842102
121,NA,100,5,2,1,0.86818840005435,1.7144596191724604,1.0847493097842102
121,NA,101,6,3,1,1.20061349996831,1.7144596191724604,1.0847493097842102
121,NA,102,6,1,0,2.30155529989861,1.7144596191724604,1.0847493097842102
121,NA,103,6,2,1,0.450414099963382,1.7144596191724604,1.0847493097842102
121,NA,105,6,1,0,0.984003899968229,1.7144596191724604,1.0847493097842102
121,NA,106,6,3,1,1.53439580008853,1.7144596191724604,1.0847493097842102
121,NA,107,6,3,1,1.30071550002322,1.7144596191724604,1.0847493097842102
121,NA,108,6,1,0,1.05113059992436,1.7144596191724604,1.0847493097842102
121,NA,110,6,2,0,0.550898700021207,1.7144596191724604,1.0847493097842102
121,NA,111,6,1,1,2.73432930000126,1.7144596191724604,1.0847493097842102
121,NA,112,6,1,0,1.61751360003836,1.7144596191724604,1.0847493097842102
121,NA,113,6,2,1,1.00084570003673,1.7144596191724604,1.0847493097842102
121,NA,114,6,3,0,0.700748800067231,1.7144596191724604,1.0847493097842102
121,NA,115,6,1,1,1.33489059994463,1.7144596191724604,1.0847493097842102
121,NA,116,6,2,0,0.767524799914099,1.7144596191724604,1.0847493097842102
121,NA,117,6,1,1,1.86767060006969,1.7144596191724604,1.0847493097842102
121,NA,118,6,2,0,1.63401099992916,1.7144596191724604,1.0847493097842102
121,NA,119,6,3,1,1.50064410001505,1.7144596191724604,1.0847493097842102
121,NA,120,6,3,1,1.11763419990893,1.7144596191724604,1.0847493097842102
122,NA,2,1,1,0,5.51816470001359,3.9797200375178363,2.3716827916964744
122,NA,5,1,1,1,6.76831820001826,3.9797200375178363,2.3716827916964744
122,NA,6,1,2,0,7.50182780006435,3.9797200375178363,2.3716827916964744
122,NA,9,1,2,1,3.35312360001262,3.9797200375178363,2.3716827916964744
122,NA,10,1,1,0,4.23468049999792,3.9797200375178363,2.3716827916964744
122,NA,11,1,3,1,1.96772800001781,3.9797200375178363,2.3716827916964744
122,NA,12,1,2,1,2.03421299997717,3.9797200375178363,2.3716827916964744
122,NA,13,1,1,1,2.21727980009746,3.9797200375178363,2.3716827916964744
122,NA,14,1,2,1,3.53470770001877,3.9797200375178363,2.3716827916964744
122,NA,15,1,3,1,6.46831769996788,3.9797200375178363,2.3716827916964744
122,NA,16,1,3,0,3.55150810000487,3.9797200375178363,2.3716827916964744
122,NA,17,1,1,0,2.11732459999621,3.9797200375178363,2.3716827916964744
122,NA,18,1,3,1,1.70227480004542,3.9797200375178363,2.3716827916964744
122,NA,19,1,3,0,1.90073860005941,3.9797200375178363,2.3716827916964744
122,NA,20,1,1,0,1.5530525000067401,3.9797200375178363,2.3716827916964744
123,NA,3,1,2,1,2.71782180003356,1.8372601016676833,0.8723383413833429
123,NA,4,1,2,1,2.03347540006507,1.8372601016676833,0.8723383413833429
123,NA,5,1,1,1,3.18400359991938,1.8372601016676833,0.8723383413833429
123,NA,6,1,2,1,2.21732689999044,1.8372601016676833,0.8723383413833429
123,NA,7,1,3,1,2.50098149990663,1.8372601016676833,0.8723383413833429
123,NA,8,1,1,1,2.3513924999861,1.8372601016676833,0.8723383413833429
123,NA,9,1,2,1,1.98460239998531,1.8372601016676833,0.8723383413833429
123,NA,10,1,1,1,2.58423709997442,1.8372601016676833,0.8723383413833429
123,NA,11,1,3,1,1.85121640004218,1.8372601016676833,0.8723383413833429
123,NA,12,1,2,1,1.98594439995941,1.8372601016676833,0.8723383413833429
123,NA,13,1,1,1,1.80124039994553,1.8372601016676833,0.8723383413833429
123,NA,14,1,2,1,1.6341354000615,1.8372601016676833,0.8723383413833429
123,NA,15,1,3,1,1.41762289998587,1.8372601016676833,0.8723383413833429
123,NA,16,1,3,1,1.5674880000297,1.8372601016676833,0.8723383413833429
123,NA,17,1,1,1,2.11785020004027,1.8372601016676833,0.8723383413833429
123,NA,18,1,3,1,1.85109410004225,1.8372601016676833,0.8723383413833429
123,NA,19,1,3,1,1.58438440004829,1.8372601016676833,0.8723383413833429
123,NA,20,1,1,1,1.65090340003371,1.8372601016676833,0.8723383413833429
123,NA,22,2,3,1,3.03449099999852,1.8372601016676833,0.8723383413833429
123,NA,23,2,1,1,1.86733600008301,1.8372601016676833,0.8723383413833429
123,NA,24,2,1,1,3.28462759999093,1.8372601016676833,0.8723383413833429
123,NA,25,2,2,1,2.00086859997828,1.8372601016676833,0.8723383413833429
123,NA,26,2,3,1,1.5024068999337,1.8372601016676833,0.8723383413833429
123,NA,27,2,3,1,2.71973830007482,1.8372601016676833,0.8723383413833429
123,NA,28,2,2,1,3.18452200002503,1.8372601016676833,0.8723383413833429
123,NA,29,2,1,1,2.46776519995183,1.8372601016676833,0.8723383413833429
123,NA,30,2,3,1,2.00099589989986,1.8372601016676833,0.8723383413833429
123,NA,31,2,2,1,3.50119759992231,1.8372601016676833,0.8723383413833429
123,NA,32,2,3,1,1.569604099961,1.8372601016676833,0.8723383413833429
123,NA,35,2,1,1,1.58420179993846,1.8372601016676833,0.8723383413833429
123,NA,36,2,3,1,1.33429670007899,1.8372601016676833,0.8723383413833429
123,NA,37,2,2,1,1.51750600000378,1.8372601016676833,0.8723383413833429
123,NA,38,2,3,1,1.35257840005215,1.8372601016676833,0.8723383413833429
123,NA,39,2,1,1,1.9510222999379,1.8372601016676833,0.8723383413833429
123,NA,40,2,2,1,1.38423319999129,1.8372601016676833,0.8723383413833429
123,NA,41,3,3,1,2.11798109998927,1.8372601016676833,0.8723383413833429
123,NA,42,3,1,1,1.45097420003731,1.8372601016676833,0.8723383413833429
123,NA,43,3,2,1,1.3846575000789,1.8372601016676833,0.8723383413833429
123,NA,44,3,2,1,1.93417060002685,1.8372601016676833,0.8723383413833429
123,NA,45,3,1,1,1.40027969994117,1.8372601016676833,0.8723383413833429
123,NA,46,3,3,1,1.41810260002967,1.8372601016676833,0.8723383413833429
123,NA,47,3,3,1,1.31720609997865,1.8372601016676833,0.8723383413833429
123,NA,48,3,1,1,2.08425299997907,1.8372601016676833,0.8723383413833429
123,NA,49,3,2,1,1.73426880000625,1.8372601016676833,0.8723383413833429
123,NA,50,3,2,1,1.20261500007473,1.8372601016676833,0.8723383413833429
123,NA,51,3,1,1,1.53406970005017,1.8372601016676833,0.8723383413833429
123,NA,52,3,1,1,1.15105569991283,1.8372601016676833,0.8723383413833429
123,NA,53,3,2,0,1.23419970006216,1.8372601016676833,0.8723383413833429
123,NA,54,3,3,1,1.91783339995891,1.8372601016676833,0.8723383413833429
123,NA,55,3,1,1,1.2679119000677,1.8372601016676833,0.8723383413833429
123,NA,56,3,2,1,2.96811000001617,1.8372601016676833,0.8723383413833429
123,NA,57,3,1,1,1.68422379996628,1.8372601016676833,0.8723383413833429
123,NA,58,3,2,1,1.61869010003284,1.8372601016676833,0.8723383413833429
123,NA,59,3,3,1,1.61733080004342,1.8372601016676833,0.8723383413833429
123,NA,60,3,3,1,1.78598390007392,1.8372601016676833,0.8723383413833429
123,NA,61,4,3,1,2.46786580001935,1.8372601016676833,0.8723383413833429
123,NA,62,4,1,1,2.00101480004378,1.8372601016676833,0.8723383413833429
123,NA,63,4,2,1,2.16756750002969,1.8372601016676833,0.8723383413833429
123,NA,64,4,2,1,1.28457909997087,1.8372601016676833,0.8723383413833429
123,NA,65,4,1,1,1.60081420000643,1.8372601016676833,0.8723383413833429
123,NA,66,4,2,1,1.45102110004518,1.8372601016676833,0.8723383413833429
123,NA,67,4,3,1,1.50067620002665,1.8372601016676833,0.8723383413833429
123,NA,68,4,1,1,1.46750879997853,1.8372601016676833,0.8723383413833429
123,NA,69,4,2,1,1.55088440002874,1.8372601016676833,0.8723383413833429
123,NA,70,4,1,1,1.48450220003724,1.8372601016676833,0.8723383413833429
123,NA,71,4,3,1,1.43418540002313,1.8372601016676833,0.8723383413833429
123,NA,72,4,2,1,1.4505705999909,1.8372601016676833,0.8723383413833429
123,NA,73,4,1,1,1.23410649993457,1.8372601016676833,0.8723383413833429
123,NA,74,4,2,1,1.01774129993282,1.8372601016676833,0.8723383413833429
123,NA,75,4,3,1,1.81745680002496,1.8372601016676833,0.8723383413833429
123,NA,76,4,3,1,1.16760570008773,1.8372601016676833,0.8723383413833429
123,NA,77,4,1,1,1.40099849994294,1.8372601016676833,0.8723383413833429
123,NA,78,4,3,1,1.21756849996746,1.8372601016676833,0.8723383413833429
123,NA,79,4,3,1,1.61747539998032,1.8372601016676833,0.8723383413833429
123,NA,80,4,1,1,1.30107879999559,1.8372601016676833,0.8723383413833429
123,NA,81,5,2,1,2.75279979989864,1.8372601016676833,0.8723383413833429
123,NA,82,5,3,1,1.05077710002661,1.8372601016676833,0.8723383413833429
123,NA,83,5,1,1,1.23430210002698,1.8372601016676833,0.8723383413833429
123,NA,84,5,1,1,0.917389000067487,1.8372601016676833,0.8723383413833429
123,NA,85,5,2,1,1.3515682000434,1.8372601016676833,0.8723383413833429
123,NA,86,5,3,1,1.45001899998169,1.8372601016676833,0.8723383413833429
123,NA,87,5,3,1,1.36788989999332,1.8372601016676833,0.8723383413833429
123,NA,88,5,2,1,1.36775689991191,1.8372601016676833,0.8723383413833429
123,NA,89,5,1,1,1.1510425999295,1.8372601016676833,0.8723383413833429
123,NA,90,5,3,1,0.967475299956277,1.8372601016676833,0.8723383413833429
123,NA,91,5,2,1,1.9013108999934,1.8372601016676833,0.8723383413833429
123,NA,92,5,3,1,1.78475340001751,1.8372601016676833,0.8723383413833429
123,NA,93,5,1,1,1.63422970008105,1.8372601016676833,0.8723383413833429
123,NA,94,5,2,1,1.86733839998487,1.8372601016676833,0.8723383413833429
123,NA,95,5,1,1,1.06771460000891,1.8372601016676833,0.8723383413833429
123,NA,96,5,3,1,1.06755210005213,1.8372601016676833,0.8723383413833429
123,NA,97,5,2,1,2.15107520006131,1.8372601016676833,0.8723383413833429
123,NA,98,5,3,1,2.06851699994877,1.8372601016676833,0.8723383413833429
123,NA,99,5,1,1,2.20074070000555,1.8372601016676833,0.8723383413833429
123,NA,100,5,2,1,0.867647400009446,1.8372601016676833,0.8723383413833429
123,NA,101,6,3,1,1.73448680003639,1.8372601016676833,0.8723383413833429
123,NA,102,6,1,1,2.71756270003971,1.8372601016676833,0.8723383413833429
123,NA,103,6,2,1,1.58417609997559,1.8372601016676833,0.8723383413833429
123,NA,104,6,2,1,1.53441249998286,1.8372601016676833,0.8723383413833429
123,NA,105,6,1,1,1.10124959994573,1.8372601016676833,0.8723383413833429
123,NA,106,6,3,1,1.1010338999331,1.8372601016676833,0.8723383413833429
123,NA,107,6,3,1,1.86766260000877,1.8372601016676833,0.8723383413833429
123,NA,108,6,1,1,1.15087799995672,1.8372601016676833,0.8723383413833429
123,NA,109,6,2,1,1.10072869993746,1.8372601016676833,0.8723383413833429
123,NA,110,6,2,1,1.58343140000943,1.8372601016676833,0.8723383413833429
123,NA,111,6,1,1,1.16732330003288,1.8372601016676833,0.8723383413833429
123,NA,112,6,1,1,1.13447590009309,1.8372601016676833,0.8723383413833429
123,NA,113,6,2,1,1.10129860008601,1.8372601016676833,0.8723383413833429
123,NA,114,6,3,1,1.08445919991937,1.8372601016676833,0.8723383413833429
123,NA,115,6,1,1,0.985573899932206,1.8372601016676833,0.8723383413833429
123,NA,116,6,2,1,1.367510400014,1.8372601016676833,0.8723383413833429
123,NA,117,6,1,1,2.25306719995569,1.8372601016676833,0.8723383413833429
123,NA,118,6,2,0,1.33468520001043,1.8372601016676833,0.8723383413833429
123,NA,119,6,3,1,1.88432469998952,1.8372601016676833,0.8723383413833429
123,NA,120,6,3,1,1.36723980004899,1.8372601016676833,0.8723383413833429
124,NA,5,1,1,0,4.83482540003024,2.8245784017727167,1.5813447797901476
124,NA,6,1,2,1,4.3515167000005,2.8245784017727167,1.5813447797901476
124,NA,7,1,3,1,2.45114159991499,2.8245784017727167,1.5813447797901476
124,NA,8,1,1,0,4.88486869994085,2.8245784017727167,1.5813447797901476
124,NA,9,1,2,1,2.21899259998463,2.8245784017727167,1.5813447797901476
124,NA,10,1,1,1,2.90093120001256,2.8245784017727167,1.5813447797901476
124,NA,11,1,3,1,2.31871789996512,2.8245784017727167,1.5813447797901476
124,NA,12,1,2,1,2.03436980000697,2.8245784017727167,1.5813447797901476
124,NA,13,1,1,0,2.41763819998596,2.8245784017727167,1.5813447797901476
124,NA,14,1,2,1,2.0175797000993,2.8245784017727167,1.5813447797901476
124,NA,15,1,3,1,2.45107990002725,2.8245784017727167,1.5813447797901476
124,NA,16,1,3,1,1.95099589996971,2.8245784017727167,1.5813447797901476
124,NA,17,1,1,1,2.41789180005435,2.8245784017727167,1.5813447797901476
124,NA,18,1,3,1,2.35088969999924,2.8245784017727167,1.5813447797901476
124,NA,19,1,3,1,2.56770830007736,2.8245784017727167,1.5813447797901476
124,NA,20,1,1,1,2.05070430005435,2.8245784017727167,1.5813447797901476
124,NA,22,2,3,1,3.5516564999707,2.8245784017727167,1.5813447797901476
124,NA,25,2,2,1,2.41748260008171,2.8245784017727167,1.5813447797901476
124,NA,26,2,3,1,1.90110359992832,2.8245784017727167,1.5813447797901476
124,NA,27,2,3,1,2.40089469996747,2.8245784017727167,1.5813447797901476
124,NA,28,2,2,1,1.95110840001144,2.8245784017727167,1.5813447797901476
124,NA,30,2,3,1,3.21794420003425,2.8245784017727167,1.5813447797901476
124,NA,31,2,2,1,2.28440969996154,2.8245784017727167,1.5813447797901476
124,NA,32,2,3,1,4.86820360005368,2.8245784017727167,1.5813447797901476
124,NA,33,2,1,1,5.55304809997324,2.8245784017727167,1.5813447797901476
124,NA,34,2,2,1,5.41803659999277,2.8245784017727167,1.5813447797901476
124,NA,35,2,1,0,5.18609490001108,2.8245784017727167,1.5813447797901476
124,NA,37,2,2,1,3.3344849999994,2.8245784017727167,1.5813447797901476
124,NA,38,2,3,1,2.86759499995969,2.8245784017727167,1.5813447797901476
124,NA,39,2,1,0,3.15104060003068,2.8245784017727167,1.5813447797901476
124,NA,40,2,2,1,5.1180254999781,2.8245784017727167,1.5813447797901476
124,NA,41,3,3,1,3.01766080001835,2.8245784017727167,1.5813447797901476
124,NA,42,3,1,1,2.25119690003339,2.8245784017727167,1.5813447797901476
124,NA,43,3,2,1,1.83427610003855,2.8245784017727167,1.5813447797901476
124,NA,45,3,1,0,4.11808160005603,2.8245784017727167,1.5813447797901476
124,NA,46,3,3,0,0.533182800048962,2.8245784017727167,1.5813447797901476
124,NA,47,3,3,1,2.78460080001969,2.8245784017727167,1.5813447797901476
124,NA,48,3,1,1,2.41803110006731,2.8245784017727167,1.5813447797901476
124,NA,49,3,2,1,2.18427690002136,2.8245784017727167,1.5813447797901476
124,NA,50,3,2,1,2.10116939991713,2.8245784017727167,1.5813447797901476
124,NA,52,3,1,1,2.76769629993942,2.8245784017727167,1.5813447797901476
124,NA,53,3,2,1,1.46777290001046,2.8245784017727167,1.5813447797901476
124,NA,54,3,3,1,2.16764829994645,2.8245784017727167,1.5813447797901476
124,NA,55,3,1,0,1.78405520005617,2.8245784017727167,1.5813447797901476
124,NA,56,3,2,1,4.3680849999655,2.8245784017727167,1.5813447797901476
124,NA,58,3,2,1,2.30092139996123,2.8245784017727167,1.5813447797901476
124,NA,59,3,3,1,3.06774670002051,2.8245784017727167,1.5813447797901476
124,NA,60,3,3,1,3.58450269990135,2.8245784017727167,1.5813447797901476
124,NA,61,4,3,1,3.9520654999651,2.8245784017727167,1.5813447797901476
124,NA,62,4,1,0,2.45081110007595,2.8245784017727167,1.5813447797901476
124,NA,63,4,2,0,0.300652600009926,2.8245784017727167,1.5813447797901476
124,NA,64,4,2,1,1.96750000002794,2.8245784017727167,1.5813447797901476
124,NA,65,4,1,1,2.01784959994256,2.8245784017727167,1.5813447797901476
124,NA,66,4,2,1,2.63446179998573,2.8245784017727167,1.5813447797901476
124,NA,67,4,3,1,1.56764180003665,2.8245784017727167,1.5813447797901476
124,NA,68,4,1,0,1.35104300000239,2.8245784017727167,1.5813447797901476
124,NA,69,4,2,1,1.65068230009638,2.8245784017727167,1.5813447797901476
124,NA,70,4,1,1,2.53568219998851,2.8245784017727167,1.5813447797901476
124,NA,71,4,3,1,1.83454559999518,2.8245784017727167,1.5813447797901476
124,NA,72,4,2,1,1.50082279997878,2.8245784017727167,1.5813447797901476
124,NA,73,4,1,0,1.55110379995313,2.8245784017727167,1.5813447797901476
124,NA,74,4,2,1,2.25323180004489,2.8245784017727167,1.5813447797901476
124,NA,75,4,3,1,3.50129779998679,2.8245784017727167,1.5813447797901476
124,NA,76,4,3,1,2.20085010002367,2.8245784017727167,1.5813447797901476
124,NA,77,4,1,1,3.53479850001168,2.8245784017727167,1.5813447797901476
124,NA,78,4,3,1,5.43486309994478,2.8245784017727167,1.5813447797901476
124,NA,80,4,1,1,2.95100819994695,2.8245784017727167,1.5813447797901476
124,NA,81,5,2,1,2.7345692999661,2.8245784017727167,1.5813447797901476
124,NA,82,5,3,1,1.83442349999677,2.8245784017727167,1.5813447797901476
124,NA,83,5,1,0,2.38436589995399,2.8245784017727167,1.5813447797901476
124,NA,84,5,1,1,1.81750310002826,2.8245784017727167,1.5813447797901476
124,NA,85,5,2,1,1.75106069992762,2.8245784017727167,1.5813447797901476
124,NA,86,5,3,1,1.21749379998073,2.8245784017727167,1.5813447797901476
124,NA,87,5,3,1,2.11777479993179,2.8245784017727167,1.5813447797901476
124,NA,88,5,2,1,2.50106999999844,2.8245784017727167,1.5813447797901476
124,NA,89,5,1,0,3.60098720004316,2.8245784017727167,1.5813447797901476
124,NA,90,5,3,1,2.08430170000065,2.8245784017727167,1.5813447797901476
124,NA,91,5,2,1,2.26767929992639,2.8245784017727167,1.5813447797901476
124,NA,92,5,3,1,2.0175145000685,2.8245784017727167,1.5813447797901476
124,NA,93,5,1,1,3.03424309997354,2.8245784017727167,1.5813447797901476
124,NA,94,5,2,1,2.11879800003953,2.8245784017727167,1.5813447797901476
124,NA,95,5,1,0,1.93426250002813,2.8245784017727167,1.5813447797901476
124,NA,96,5,3,1,1.50090670003556,2.8245784017727167,1.5813447797901476
124,NA,97,5,2,1,1.68445689999498,2.8245784017727167,1.5813447797901476
124,NA,98,5,3,1,4.25139919994399,2.8245784017727167,1.5813447797901476
124,NA,99,5,1,0,1.60094009991735,2.8245784017727167,1.5813447797901476
124,NA,100,5,2,1,1.4674354000017,2.8245784017727167,1.5813447797901476
124,NA,101,6,3,1,2.15125250001438,2.8245784017727167,1.5813447797901476
124,NA,102,6,1,1,2.8510735000018,2.8245784017727167,1.5813447797901476
124,NA,103,6,2,1,5.4680825000396,2.8245784017727167,1.5813447797901476
124,NA,104,6,2,1,3.16759820003062,2.8245784017727167,1.5813447797901476
124,NA,105,6,1,0,1.9679080999922,2.8245784017727167,1.5813447797901476
124,NA,106,6,3,1,1.66927069996018,2.8245784017727167,1.5813447797901476
124,NA,107,6,3,1,1.58471590001136,2.8245784017727167,1.5813447797901476
124,NA,108,6,1,1,2.51762020005845,2.8245784017727167,1.5813447797901476
124,NA,109,6,2,0,2.41749100002926,2.8245784017727167,1.5813447797901476
124,NA,110,6,2,1,1.58404850005172,2.8245784017727167,1.5813447797901476
124,NA,111,6,1,0,1.38557219994254,2.8245784017727167,1.5813447797901476
124,NA,112,6,1,1,0.98412559996359,2.8245784017727167,1.5813447797901476
124,NA,113,6,2,1,0.900971500086598,2.8245784017727167,1.5813447797901476
124,NA,114,6,3,1,1.38424949999899,2.8245784017727167,1.5813447797901476
124,NA,115,6,1,0,1.25077569996938,2.8245784017727167,1.5813447797901476
124,NA,116,6,2,0,0.969995600054972,2.8245784017727167,1.5813447797901476
124,NA,117,6,1,1,2.85155790008139,2.8245784017727167,1.5813447797901476
124,NA,118,6,2,1,3.36730729998089,2.8245784017727167,1.5813447797901476
124,NA,119,6,3,1,2.81767500005662,2.8245784017727167,1.5813447797901476
124,NA,120,6,3,1,3.15112709999084,2.8245784017727167,1.5813447797901476
125,NA,2,1,1,0,4.41941489989404,2.795266849991187,1.628778913339654
125,NA,3,1,2,0,2.61776559997816,2.795266849991187,1.628778913339654
125,NA,4,1,2,1,1.88413180003408,2.795266849991187,1.628778913339654
125,NA,5,1,1,1,1.40121249994263,2.795266849991187,1.628778913339654
125,NA,6,1,2,1,1.90135249996092,2.795266849991187,1.628778913339654
125,NA,7,1,3,0,2.43481700005941,2.795266849991187,1.628778913339654
125,NA,8,1,1,1,3.81855219998397,2.795266849991187,1.628778913339654
125,NA,9,1,2,1,1.45072049996816,2.795266849991187,1.628778913339654
125,NA,10,1,1,1,1.76758439990226,2.795266849991187,1.628778913339654
125,NA,11,1,3,1,2.20155379991047,2.795266849991187,1.628778913339654
125,NA,12,1,2,1,2.95147119998001,2.795266849991187,1.628778913339654
125,NA,13,1,1,0,1.60289810004178,2.795266849991187,1.628778913339654
125,NA,14,1,2,0,0.717589000007138,2.795266849991187,1.628778913339654
125,NA,15,1,3,0,4.12045879999641,2.795266849991187,1.628778913339654
125,NA,16,1,3,0,1.85140140005387,2.795266849991187,1.628778913339654
125,NA,17,1,1,1,1.76748179993592,2.795266849991187,1.628778913339654
125,NA,18,1,3,1,3.08448330010287,2.795266849991187,1.628778913339654
125,NA,19,1,3,0,3.86851339996792,2.795266849991187,1.628778913339654
125,NA,20,1,1,0,4.01808250008617,2.795266849991187,1.628778913339654
125,NA,21,2,2,1,3.65162650006823,2.795266849991187,1.628778913339654
125,NA,22,2,3,1,3.18444010009989,2.795266849991187,1.628778913339654
125,NA,23,2,1,1,1.85139090009034,2.795266849991187,1.628778913339654
125,NA,24,2,1,1,3.08476759993937,2.795266849991187,1.628778913339654
125,NA,25,2,2,1,3.73464359994978,2.795266849991187,1.628778913339654
125,NA,26,2,3,1,3.51758700003847,2.795266849991187,1.628778913339654
125,NA,28,2,2,1,2.30048540001735,2.795266849991187,1.628778913339654
125,NA,29,2,1,0,2.3179823999526,2.795266849991187,1.628778913339654
125,NA,31,2,2,1,2.55094690003898,2.795266849991187,1.628778913339654
125,NA,32,2,3,1,1.26859939994756,2.795266849991187,1.628778913339654
125,NA,33,2,1,1,1.4510208000429,2.795266849991187,1.628778913339654
125,NA,34,2,2,1,1.16752789996099,2.795266849991187,1.628778913339654
125,NA,35,2,1,1,2.40109679999296,2.795266849991187,1.628778913339654
125,NA,36,2,3,1,1.98424539994448,2.795266849991187,1.628778913339654
125,NA,37,2,2,1,1.28427100006957,2.795266849991187,1.628778913339654
125,NA,38,2,3,1,3.20151050004643,2.795266849991187,1.628778913339654
125,NA,39,2,1,0,4.78485579998232,2.795266849991187,1.628778913339654
125,NA,40,2,2,1,1.63431180000771,2.795266849991187,1.628778913339654
125,NA,41,3,3,1,2.56775640009437,2.795266849991187,1.628778913339654
125,NA,42,3,1,1,1.68450740003027,2.795266849991187,1.628778913339654
125,NA,43,3,2,1,1.35104779992253,2.795266849991187,1.628778913339654
125,NA,44,3,2,1,1.11777699994855,2.795266849991187,1.628778913339654
125,NA,45,3,1,0,2.53447630000301,2.795266849991187,1.628778913339654
125,NA,46,3,3,1,2.03428449993953,2.795266849991187,1.628778913339654
125,NA,47,3,3,1,2.66797149996273,2.795266849991187,1.628778913339654
125,NA,48,3,1,0,2.70127820002381,2.795266849991187,1.628778913339654
125,NA,49,3,2,1,1.40095320006367,2.795266849991187,1.628778913339654
125,NA,50,3,2,1,3.95131759997457,2.795266849991187,1.628778913339654
125,NA,51,3,1,0,3.8179501000559,2.795266849991187,1.628778913339654
125,NA,52,3,1,0,2.46795840002596,2.795266849991187,1.628778913339654
125,NA,53,3,2,1,1.4340336000314,2.795266849991187,1.628778913339654
125,NA,54,3,3,0,2.36806140001863,2.795266849991187,1.628778913339654
125,NA,55,3,1,0,3.26784250000492,2.795266849991187,1.628778913339654
125,NA,56,3,2,1,1.08445289998781,2.795266849991187,1.628778913339654
125,NA,57,3,1,0,2.26743070001248,2.795266849991187,1.628778913339654
125,NA,58,3,2,1,3.20120929996483,2.795266849991187,1.628778913339654
125,NA,59,3,3,0,2.50117950001732,2.795266849991187,1.628778913339654
125,NA,60,3,3,1,1.76730870001484,2.795266849991187,1.628778913339654
125,NA,61,4,3,1,1.96770729997661,2.795266849991187,1.628778913339654
125,NA,62,4,1,0,1.38397039996926,2.795266849991187,1.628778913339654
